{
    "_links":
    {
        "priorVersion":
        {
            "href": "/mdr/ct/packages/glossaryct-2023-12-15",
            "title": "Glossary Controlled Terminology Package 56 Effective 2023-12-15",
            "type": "Terminology"
        },
        "self":
        {
            "href": "/mdr/ct/packages/glossaryct-2024-09-27",
            "title": "Glossary Controlled Terminology Package 58 Effective 2024-09-27",
            "type": "Terminology"
        }
    },
    "codelists":
    [
        {
            "conceptId": "C67497",
            "definition": "The terminology of the Clinical Data Interchange Standards Consortium (CDISC) glossary.",
            "name": "CDISC Glossary",
            "preferredTerm": "CDISC Glossary Terminology",
            "submissionValue": "CDISC Glossary",
            "synonyms":
            [
                "CDISC Glossary"
            ],
            "terms":
            [
                {
                    "conceptId": "C80442",
                    "definition": "510(k). Premarket Notification (PMN) required for certain medical devices. See http://www.fda.gov/cdrh/510khome.html.",
                    "preferredTerm": "Premarket Device Notification",
                    "submissionValue": "510(k)"
                },
                {
                    "conceptId": "C42610",
                    "definition": "A set of letters that are drawn from a word or from a sequence of words and that are used for brevity in place of the full word or phrase. NOTE: An abbreviation is NOT pronounced as a word, but each letter is read in sequence (e.g., NIH). Compare to acronym.",
                    "preferredTerm": "Abbreviation",
                    "submissionValue": "abbreviation"
                },
                {
                    "conceptId": "C71733",
                    "definition": "The process by which medications reach the blood stream when administered other than intravenously, for example, through nasal membranes. See also ADME (pharmacokinetics).",
                    "preferredTerm": "Biological Absorption",
                    "submissionValue": "absorption"
                },
                {
                    "conceptId": "C156638",
                    "definition": "Regulatory mechanism by which new drugs meant to treat serious life-threatening diseases and that provide meaningful therapeutic benefit to patients over existing treatments can be approved rapidly. [after FDA, Guidance for Industry Expedited Programs for Serious Conditions - Drugs and Biologics; after NIH-FDA BEST (Biomarkers, Endpoints, and other Tools) Resource https://www.ncbi.nlm.nih.gov/books/NBK338448/]",
                    "preferredTerm": "Accelerated Approval",
                    "submissionValue": "accelerated approval",
                    "synonyms":
                    [
                        "fast track designation"
                    ]
                },
                {
                    "conceptId": "C25403",
                    "definition": "The accumulation or increase in the number of study subject enrolled over time. NOTE: Accrual is often conflated with enrollment but there is a semantic distinction in that accrual represents the rate of subject enrollment. [After Schroen AT, Petroni GR, Wang H, Thielen MJ, Gray R, Benedetti J, Wang XF, Sargent DJ, Wickerham DL, Cronin W, Djulbegovic B, Slingluff CL Jr. Achieving sufficient accrual to address the primary endpoint in phase III clinical trials from U.S. Cooperative Oncology Groups. Clin Cancer Res. 2012 Jan 1;18(1):256-62.] See also target enrollment.",
                    "preferredTerm": "Accrual",
                    "submissionValue": "accrual"
                },
                {
                    "conceptId": "C93495",
                    "definition": "A word formed from the beginning letters (e.g., ANSI) or a combination of syllables and letters (e.g., MedDRA) of a name or phrase. NOTE: An acronym is usually pronounced as a word, not by speaking each letter individually. Compare to abbreviation",
                    "preferredTerm": "Acronym",
                    "submissionValue": "acronym"
                },
                {
                    "conceptId": "C142550",
                    "definition": "An official communication from FDA to an NDA sponsor announcing an agency decision. See also approval letter, approvable letter, not-approvable letter.",
                    "preferredTerm": "FDA Action Letter",
                    "submissionValue": "action letter"
                },
                {
                    "conceptId": "C142528",
                    "definition": "Enabling an eClinical trial system to capture data; usually used for EDC systems.",
                    "preferredTerm": "Electronic Data Capture Activation",
                    "submissionValue": "activation (EDC)"
                },
                {
                    "conceptId": "C95337",
                    "definition": "The amount of a single active substance administered in a single dose.",
                    "preferredTerm": "Active Ingredient Dose",
                    "submissionValue": "active ingredient dose",
                    "synonyms":
                    [
                        "active substance dose"
                    ]
                },
                {
                    "conceptId": "C82533",
                    "definition": "Any component of a drug product intended to exert pharmacological activity or other direct effect in the diagnosis, cure, mitigation, treatment, or prevention of disease, or to affect the structure or any function of the body of humans or other animals. [After 21 CFR 210.3(b)(7)]",
                    "preferredTerm": "Active Ingredient",
                    "submissionValue": "active ingredient"
                },
                {
                    "conceptId": "C202486",
                    "definition": "Substance responsible for the activity of the medicine. NOTE: The protocol may define the active substance in terms of the Anatomical Therapeutic Chemical (ATC) code (level 3-5). [EMA Glossary of regulatory terms; EU Reg 536/2014] See also international nonproprietary name (INN), generic name.",
                    "preferredTerm": "Active Substance",
                    "submissionValue": "active substance"
                },
                {
                    "conceptId": "C98704",
                    "definition": "A clinical trial design that allows for prospectively planned modifications to one or more aspects of the design based on accumulating data from subjects in the trial. [Adaptive Designs for Clinical Trials of Drugs and Biologics Guidance for Industry, FDA] See also master protocol.",
                    "preferredTerm": "Adaptive Design",
                    "submissionValue": "adaptive design"
                },
                {
                    "conceptId": "C203914",
                    "definition": "An interaction between bioactive compounds or drugs that is deemed to be equal to the sum of the individual components. NOTE: The terms additivity, synergism, and antagonism should be used with care, unless the specific pharmacological pathways or mechanisms of action of the investigated drugs are known. [After Calzetta L, Koziol-White C. Pharmacological interactions: Synergism, or not synergism, that is the question. Curr Res Pharmacol Drug Discov. 2021 Aug 11;2:100046.] See also synergistic effect, antagonistic effect, drug interaction.",
                    "preferredTerm": "Additive Effect",
                    "submissionValue": "additive effect"
                },
                {
                    "conceptId": "C142382",
                    "definition": "Studies used to support drug marketing authorization and intended to provide substantial evidence of effectiveness required by law to support a conclusion that a drug is effective. NOTE: For additional information see COA glossary of terms. [After 1. FDA Clinical Outcome Assessment (COA) Glossary; 2. 21 CFR 314.126]",
                    "preferredTerm": "Adequate and Well-controlled Study",
                    "submissionValue": "adequate and well-controlled studies"
                },
                {
                    "conceptId": "C25729",
                    "definition": "The act of abiding by a stated treatment plan or protocol. [NCI]",
                    "preferredTerm": "Adherence",
                    "submissionValue": "adherence"
                },
                {
                    "conceptId": "C142383",
                    "definition": "Pharmaceutical dose form for administration to the patient, after any necessary transformation of the manufactured items and their corresponding manufactured dose forms has been carried out. [After ISO 11615 Identification of medicinal products-Data elements and structures for the unique identification and exchange of regulated medicinal product information, Second edition 2017-10] See also route of administration, administration (substance).",
                    "preferredTerm": "Administrable Dosage Form",
                    "submissionValue": "administrable dosage form"
                },
                {
                    "conceptId": "C70962",
                    "definition": "The act of introducing a substance into or onto the body. [After EDQM Standard Terms controlled vocabularies for pharmaceutical dose forms Version 1.2.0 2019. Internal controlled vocabularies for pharmaceutical dose forms. Version 1.2.0 - 28 January 2019.] See also route of administration, administrable dosage form.",
                    "preferredTerm": "Agent Administration",
                    "submissionValue": "administration (substance)"
                },
                {
                    "conceptId": "C142384",
                    "definition": "Basis for selecting target population for a clinical trial. Subjects must be screened to ensure that their characteristics match a list of admission criteria and that none of their characteristics match any single one of the exclusion criteria set up for the study. See also inclusion criteria, exclusion criteria.",
                    "preferredTerm": "Admission Criteria",
                    "submissionValue": "admission criteria"
                },
                {
                    "conceptId": "C142385",
                    "definition": "Any noxious and unintended response associated with the use of a drug in humans. NOTE: 1. Post-approval: an adverse event that occurs at doses normally used in man for prophylaxis, diagnosis, or therapy of diseases or for modification of physiological function. 2. Pre-approval: an adverse event that occurs at any dose and where a causal relationship is at least a reasonable possibility. 3. FDA 21 CFR 310.305 defines an adverse drug experience to include any adverse event, \"whether or not considered to be drug-related.\" CDISC recognizes that current usage incorporates the concept of causality. [WHO Technical Report 498(1972); ICH E2A]",
                    "preferredTerm": "Adverse Drug Reaction",
                    "submissionValue": "adverse drug reaction (ADR)",
                    "synonyms":
                    [
                        "adverse drug experience"
                    ]
                },
                {
                    "conceptId": "C41331",
                    "definition": "Any untoward medical occurrence in a patient or clinical investigation subject administered a pharmaceutical product and which does not necessarily have a causal relationship with this treatment. an adverse event (AE) can therefore be any unintended sign (including an abnormal laboratory finding), symptom, or disease temporally associated with the use of a medicinal (investigational) product, whether or not related to the medicinal (investigational) product. NOTE: For further information, see the ICH Guideline for Clinical safety Data Management: Definitions and standards for expedited Reporting. [After ICH E2A] See also serious adverse event, serious adverse experience.",
                    "preferredTerm": "Adverse Event",
                    "submissionValue": "adverse event (AE)",
                    "synonyms":
                    [
                        "adverse experience",
                        "side effects"
                    ]
                },
                {
                    "conceptId": "C41332",
                    "definition": "A response to a medicinal product, devices, or procedures, which is noxious and unintended. Response in this context means that a causal relationship between a medicinal product and an adverse event is at least a reasonable possibility. In the context of drug development, the term is used as a synonym of adverse drug reaction. (After ICH E2A)",
                    "preferredTerm": "Adverse Reaction",
                    "submissionValue": "adverse reaction"
                },
                {
                    "conceptId": "C156645",
                    "definition": "A subscription service that provides subscribing organizations with access to adverse drug reaction data from the Medicines Control Agency ADROIT (Adverse Drug Reaction On-line Information Tracking) database.",
                    "preferredTerm": "ADROIT Electronically Generated Information Service",
                    "submissionValue": "AEGIS (ADROIT Electronically Generated Information Service)"
                },
                {
                    "conceptId": "C156646",
                    "definition": "A US government-charted commission providing input and recommendations to HHS on how to make health records digital and interoperable, and assure the privacy and security of those records (HITSP).",
                    "preferredTerm": "American Health Information Community",
                    "submissionValue": "AHIC (American Health Information Community)"
                },
                {
                    "conceptId": "C156621",
                    "definition": "Acronym for a number of attributes or dimensions that are considered of universal importance for data integrity of source data and the records that hold those data. These include that the data and records be: A-Attributable (to both subject and to any actor on a record); L-Legible (available for human review, possible to read electronically if an encoded eRecord); C-Contemporaneous (timing of data collection with respect to the time the observation is made: the more promptly an observation is recorded, the better the quality.); O-Original (the first suitably accurate and reliable recording of data for the intended purpose); A-Accurate (free from error especially as the result of care; an accurate diagnosis conforming exactly to truth or to a standard). NOTE: ALCOA stemmed from FDA's Dr. Stan Woollen's talks in the early 90's on earmarks for the quality of records and has become a widespread acronym reflecting best practices for clarity and usability of data. [From EMA Reflection Paper on eSOURCE in effect since 2010] See also: Data Quality and the Origin of ALCOA. See also: Six Primary Dimensions for Data Quality Assessment. See also ALCOA+, ALCOA++, data integrity, data quality.",
                    "preferredTerm": "Attributable, Legible, Contemporaneous, Original, Accurate",
                    "submissionValue": "ALCOA"
                },
                {
                    "conceptId": "C156622",
                    "definition": "Acronym for a number of attributes or dimensions included in ALCOA, plus the following: Complete, Consistent, Enduring, and Available when needed. NOTE: ALCOA+ is a recent way to summarily refer to the attributes or dimensions of data integrity.) [After EMA Reflection Paper on eSOURCE in effect since 2010. After WHO Annex V, Guidance on Good Data and Record Management Practices] See also ALCOA, ALCOA++, data integrity, data quality.",
                    "preferredTerm": "Attributable, Legible, Contemporaneous, Original, Accurate Plus",
                    "submissionValue": "ALCOA+",
                    "synonyms":
                    [
                        "ALCOA Plus"
                    ]
                },
                {
                    "conceptId": "C209459",
                    "definition": "An extension to ALCOA+ (A-Attributable; L-Legible; C-Contemporaneous; O-Original; A-Accurate; + Complete, Consistent, Enduring, Available) to include traceability. [After Tetrascience ALCOA++ principles for data integrity Fact Sheet] See also ALCOA, ALCOA+, data integrity, data quality.",
                    "preferredTerm": "Attributable, Legible, Contemporaneous, Original, Accurate Plus Plus",
                    "submissionValue": "ALCOA++",
                    "synonyms":
                    [
                        "ALCOA Plus Plus"
                    ]
                },
                {
                    "conceptId": "C142753",
                    "definition": "To cause a high-priority signal (or warning) to be transmitted to the relevant stakeholder by way of the local system or another system (usually according to an established set of rules). For example, the system may transmit an alert to a patient's cardiologist that the patient has experienced another heart attack. another example is that the pharmacy system may transmit an alert to the prescribing physician that a potentially dangerous drug-drug interaction may occur based on the current list of medications. another example is that the system may notify a patient's physician that laboratory results (that are not within normal limits) are available. [HL7 EHR-SFM Glossary of Terms, 2010]",
                    "preferredTerm": "System Alert",
                    "submissionValue": "alert"
                },
                {
                    "conceptId": "C16275",
                    "definition": "Step-by-step procedures for making a series of choices among alternative decisions to reach a calculated result or decision. NOTE: An algorithm may be used clinically to guide treatment decisions for an individual patient on the basis of the patient's clinical outcome or result. [after AMA Style Guide, 9th Edition]",
                    "preferredTerm": "Algorithm",
                    "submissionValue": "algorithm"
                },
                {
                    "conceptId": "C142387",
                    "definition": "The likelihood that a relationship observed between two variables is due to chance. The probability of a Type 1 error. [Modified from AMA Manual of Style]",
                    "preferredTerm": "Alpha Error",
                    "submissionValue": "alpha error"
                },
                {
                    "conceptId": "C41200",
                    "definition": "A written description of a change(s) to, or formal clarification of, a document.",
                    "preferredTerm": "Amendment",
                    "submissionValue": "amendment"
                },
                {
                    "conceptId": "C142388",
                    "definition": "Founded in 1918, ANSI itself does not develop standards. ANSI's roles include serving as the coordinator for US voluntary standards efforts, acting as the approval body to recognize documents developed by other national organizations as American National Standards, acting as the US representative in international and regional standards efforts, and serving as a clearinghouse for national and international standards development information. [HL7]",
                    "preferredTerm": "American National Standards Institute",
                    "submissionValue": "American National Standards Institute (ANSI)"
                },
                {
                    "conceptId": "C142389",
                    "definition": "An organized collection of data or information with a common theme arranged in rows and columns and represented as a single file; comparable to a database table. NOTE: standardizing analysis datasets is intended to make review and assessment of analysis more consistent [ADaM].",
                    "preferredTerm": "Analysis Dataset",
                    "submissionValue": "analysis dataset"
                },
                {
                    "conceptId": "C142390",
                    "definition": "A set of subjects whose data are to be included in the main analyses. This should be defined in the statistical section of the protocol. NOTE: There are a number of potential analysis sets, including, for example, the set based upon the intent-to-treat principle. [ICH E9]",
                    "preferredTerm": "Analysis Set of Subjects",
                    "submissionValue": "analysis set"
                },
                {
                    "conceptId": "C142391",
                    "definition": "Variables used to test the statistical hypotheses identified in the protocol and analysis plan; variables to be analyzed. See also variable.",
                    "preferredTerm": "Analysis Variable",
                    "submissionValue": "analysis variables"
                },
                {
                    "conceptId": "C25391",
                    "definition": "The process of mathematically summarizing and comparing data to confirm or refute a hypothesis. [AMA Manual of Style]",
                    "preferredTerm": "Analysis",
                    "submissionValue": "analysis",
                    "synonyms":
                    [
                        "Analyze"
                    ]
                },
                {
                    "conceptId": "C142436",
                    "definition": "Designation for a planned activity, often marking the transition between epochs or elements of a clinical study plan (e.g., \"FPFV-first patient first visit\").",
                    "preferredTerm": "Clinical Study Anchor",
                    "submissionValue": "anchor"
                },
                {
                    "conceptId": "C142392",
                    "definition": "The process of protecting privacy that removes the association between the identifying data and the data subject. In anonymized data, the patient cannot be identified by the recipient of the information. [ISO TS 25237:2008; TransCelerate Protection of Personal Data in Clinical Documents - A Model Approach]",
                    "preferredTerm": "Anonymization",
                    "submissionValue": "anonymization"
                },
                {
                    "conceptId": "C209460",
                    "definition": "An interaction between bioactive compounds or drugs that is deemed to be less than the sum of each individual component. NOTE: The terms additivity, synergism, and antagonism should be used with care, unless the specific pharmacological pathways or mechanisms of action of the investigated drugs are known. [After Calzetta L, Koziol-White C. Pharmacological interactions: Synergism, or not synergism, that is the question. Curr Res Pharmacol Drug Discov. 2021 Aug 11;2:100046.] See also synergistic effect, antagonistic effect, drug interaction.",
                    "preferredTerm": "Antagonistic Effect",
                    "submissionValue": "antagonistic effect"
                },
                {
                    "conceptId": "C16295",
                    "definition": "A type of protein made by B lymphocytes in response to a foreign substance (antigen). Each antibody only binds to a specific antigen, helping to destroy the antigen directly or by assisting white blood cells to destroy the antigen. [NCI] See also antigen.",
                    "preferredTerm": "Antibody",
                    "submissionValue": "antibody"
                },
                {
                    "conceptId": "C41333",
                    "definition": "Other adverse events that are not study endpoints and are not \"expected\" (i.e., because they are not in the investigator's brochure) that can be anticipated to occur with some frequency during the course of the trial, regardless of drug exposure, depending on the patient population and disease under study. NOTE: Examples of such \"anticipated\" events include known consequences of the underlying disease or condition under investigation, events anticipated from any background regimen, or re-emergence or worsening of a condition relative to pretreatment baseline. [after FDA, Guidance for Industry and Investigators: Safety Reporting Requirements for INDs and BA/BE Studies]",
                    "preferredTerm": "Expected Adverse Event",
                    "submissionValue": "anticipated adverse event"
                },
                {
                    "conceptId": "C268",
                    "definition": "Any substance, generally a protein, that stimulates the immune system and elicits an immune response. Recognition by the immune system elicits either a T-lymphocyte response, recognizing processed antigens, or a B-lymphocyte response, producing antibodies that bind to unprocessed antigens. [NCI] See also antibody.",
                    "preferredTerm": "Antigen",
                    "submissionValue": "antigen"
                },
                {
                    "conceptId": "C142393",
                    "definition": "A small application, typically downloaded from a server.",
                    "preferredTerm": "Applet",
                    "submissionValue": "applet"
                },
                {
                    "conceptId": "C142394",
                    "definition": "Any law(s) or regulation(s) addressing the conduct of clinical trials of investigational products. [ICH E6(R2) Glossary, 1.4]",
                    "preferredTerm": "Applicable Regulatory Requirement",
                    "submissionValue": "applicable regulatory requirement(s)"
                },
                {
                    "conceptId": "C142551",
                    "definition": "An official communication from FDA to an NDA/ BLA sponsor that lists issues to be resolved before an approval can be issued. [Modified from 21 CFR 314.3; Guidance to industry and FDA staff (10/08/2003)]",
                    "preferredTerm": "FDA Approvable Letter",
                    "submissionValue": "approvable letter"
                },
                {
                    "conceptId": "C70800",
                    "definition": "The affirmative decision of the IRB that the clinical trial has been reviewed and may be conducted at the institution site within the constraints set forth by the IRB, the institution, good clinical practice (GCP), and the applicable regulatory requirements. [ICH E6]",
                    "preferredTerm": "Institutional Review Board Approval",
                    "submissionValue": "approval (in relation to Institutional Review Boards)"
                },
                {
                    "conceptId": "C70799",
                    "definition": "An official communication from FDA to inform an applicant of a decision to allow commercial marketing consistent with conditions of approval. [Modified from 21 CFR 314.3; Guidance to industry and FDA staff (10/08/2003)]",
                    "preferredTerm": "Approval Document",
                    "submissionValue": "approval letter"
                },
                {
                    "conceptId": "C16309",
                    "definition": "A system's ability to correctly interpret external data, to learn from such data, and to use those learnings to achieve specific goals and tasks through flexible adaptation. [Kaplan, A; Haenlein, M (1 January 2019) Business Horizons; IEEE-USA POSITION STATEMENT. Artificial Intelligence Research, Development & Regulation Adopted by the IEEE-USA, Board of Directors (February 2017)] See also machine learning, deep learning, natural language processing, synthetic data.",
                    "preferredTerm": "Artificial Intelligence",
                    "submissionValue": "artificial intelligence (AI)"
                },
                {
                    "conceptId": "C203934",
                    "definition": "A document explaining all the relevant information to assist an individual, who is unable to give informed consent on their own behalf, in understanding the expectations and risks in making a decision about a procedure.",
                    "preferredTerm": "Assent Form",
                    "submissionValue": "assent form"
                },
                {
                    "conceptId": "C25217",
                    "definition": "The interpretation or evaluation of an obtained value by using a test, tool, instrument, or expert judgement of the status of a study subject. [After BEST Resource] See also variable, outcome, endpoint.",
                    "preferredTerm": "Assessment",
                    "submissionValue": "assessment"
                },
                {
                    "conceptId": "C25358",
                    "definition": "A quality by which records and data can be traced back to the subject to whom they pertain, as well as to those persons who have acted on the records.",
                    "preferredTerm": "Attribution",
                    "submissionValue": "attributable"
                },
                {
                    "conceptId": "C62618",
                    "definition": "In data modeling, refers to specific items of data that can be collected for a class.",
                    "preferredTerm": "Computer Programming Object Attribute",
                    "submissionValue": "attribute (n)"
                },
                {
                    "conceptId": "C208448",
                    "definition": "Document that certifies that an audit has taken place (at an investigative site, CRO, or clinical research department of a pharmaceutical company). [ICH E6 Glossary]",
                    "preferredTerm": "Audit Certificate",
                    "submissionValue": "audit certificate"
                },
                {
                    "conceptId": "C142395",
                    "definition": "A written evaluation by the auditor of the results of the audit. [Modified from ICH E6 Glossary]",
                    "preferredTerm": "Audit Report",
                    "submissionValue": "audit report"
                },
                {
                    "conceptId": "C142396",
                    "definition": "A process that captures details such as additions, deletions, or alterations of information in an electronic record without obliterating the original record. An audit trail facilitates the reconstruction of the history of such actions relating to the electronic record. [after ICH E6, CSUICI]",
                    "preferredTerm": "Audit Trail",
                    "submissionValue": "audit trail"
                },
                {
                    "conceptId": "C45269",
                    "definition": "A systematic and independent examination of trial-related activities and documents to determine whether the evaluated trial-related activities were conducted and the data were recorded, analyzed, and accurately reported according to the protocol, sponsor's standard operating procedures (SOPs), good clinical practice (GCP), and the applicable regulatory requirement(s). [ICH E6 Glossary]",
                    "preferredTerm": "Audit",
                    "submissionValue": "audit"
                },
                {
                    "conceptId": "C156618",
                    "definition": "A medicinal product that is currently authorised for marketing in a country or region, that is related to the specific needs of the clinical trial as described in the protocol, but not as an investigational medicinal product, regardless of labelling of the auxiliary medicinal product. [after EU CTR]",
                    "preferredTerm": "Authorized Auxiliary Medicinal Product",
                    "submissionValue": "authorised auxiliary medicinal product"
                },
                {
                    "conceptId": "C156617",
                    "definition": "A medicinal product that is currently authorised for marketing in a country or region and used as an investigational medicinal product, irrespective of changes to the labelling of the medicinal product. [After EU CTR (EU) No 536/2014] See also investigational medicinal product.",
                    "preferredTerm": "Authorized Investigational Medicinal Product",
                    "submissionValue": "authorised investigational medicinal product"
                },
                {
                    "conceptId": "C41192",
                    "definition": "The process of giving someone permission to do or have something. In multi-user computer systems, a system administrator defines for the system which users are allowed access to the system and what privileges of use are permitted. [HL7 EHR-S FM Glossary of Terms, 2010].",
                    "preferredTerm": "Authorization",
                    "submissionValue": "authorization"
                },
                {
                    "conceptId": "C156473",
                    "definition": "A medicinal product that is related to the specific needs of the clinical trial as described in the protocol, but not as an investigational medicinal product. NOTE: Auxiliary medicinal products may be authorised for marketing in a country or region or non-authorised. [after EU-CTR]",
                    "preferredTerm": "Auxiliary Medicinal Product",
                    "submissionValue": "auxiliary medicinal product"
                },
                {
                    "conceptId": "C142397",
                    "definition": "The process of translating a document that was translated from one language to another back to the original language. Used to ensure that consent forms, surveys, and other clinical trial documents will be clear and accurate in the translated form.",
                    "preferredTerm": "Back Translation",
                    "submissionValue": "back translation (natural language)"
                },
                {
                    "conceptId": "C142649",
                    "definition": "Information pertinent to the understanding of a protocol. NOTE: Examples include investigator brochure, literature review, history, rationale, or other documentation that places a study in context or presents critical features.",
                    "preferredTerm": "Protocol Background Material",
                    "submissionValue": "background material"
                },
                {
                    "conceptId": "C165822",
                    "definition": "Medicinal products that are administered to each clinical trial subject, regardless of randomization group, a) to treat the indication which is the object of the study, or b) required in the protocol as part of standard care for a condition that is not the indication under investigation, and is relevant for the clinical trial design. [After Recommendations from the expert group on clinical trials for the implementation of Regulation (EU) No 536/2014' dd 28 June 2017]",
                    "preferredTerm": "Background Treatment",
                    "submissionValue": "background treatment"
                },
                {
                    "conceptId": "C142398",
                    "definition": "Trial in which a particular type of subject is equally represented in each study group.",
                    "preferredTerm": "Balanced Study",
                    "submissionValue": "balanced study"
                },
                {
                    "conceptId": "C142399",
                    "definition": "An indicator of the throughput (speed) of data flow on a transmission path; the width of the range of frequencies on which a transmission medium carries electronic signals. All digital and analog signal channels have a bandwidth.",
                    "preferredTerm": "Bandwidth",
                    "submissionValue": "bandwidth"
                },
                {
                    "conceptId": "C142400",
                    "definition": "Assessment of subjects as they enter a trial and before they receive any treatment.",
                    "preferredTerm": "Baseline Assessment",
                    "submissionValue": "baseline assessment"
                },
                {
                    "conceptId": "C142401",
                    "definition": "Demographic, clinical, and other data collected for each participant at the beginning of the trial before the intervention is administered. NOTE: Randomized, controlled trials aim to compare groups of participants that differ only with respect to the intervention (treatment). although proper random assignment prevents selection bias, it does not guarantee that the groups are equivalent at baseline. any differences in baseline characteristics are, however, the result of chance rather than bias. The study groups should be compared at baseline for important demographic and clinical characteristics. Baseline data may be especially valuable when the outcome measure can also be measured at the start of the trial. [CONSORT statement]",
                    "preferredTerm": "Baseline Characteristics",
                    "submissionValue": "baseline characteristics"
                },
                {
                    "conceptId": "C142402",
                    "definition": "A systematic error in creating intervention groups, such that they differ with respect to prognosis. That is, the groups differ in measured or unmeasured baseline characteristics because of the way participants were selected or assigned. NOTE: also used to mean that the participants are not representative of the population of all possible participants. [ICH E9]",
                    "preferredTerm": "Baseline Imbalance",
                    "submissionValue": "baseline imbalance"
                },
                {
                    "conceptId": "C202580",
                    "definition": "A type of trial design under a master protocol designed to test a single investigational drug or drug combination in different populations defined by disease stage, histology, number of prior therapies, genetic or other biomarkers, or demographic characteristics. [After US FDA, Master Protocols: Efficient Clinical Trial Design Strategies to Expedite Development of Oncology Drugs and Biologics Guidance for Industry, 2022] See also master protocol.",
                    "preferredTerm": "Basket Trial Design",
                    "submissionValue": "basket trial design"
                },
                {
                    "conceptId": "C209461",
                    "definition": "A type of trial conducted under a master protocol and designed to test a single investigational drug or drug combination in different populations defined by disease stage, histology, number of prior therapies, genetic or other biomarkers, or demographic characteristics. [After US FDA, Master Protocols: Efficient Clinical Trial Design Strategies to Expedite Development of Oncology Drugs and Biologics Guidance for Industry, 2022; Woodcock J, LaVange LM. Master Protocols to Study Multiple Therapies, Multiple Diseases, or Both. N Engl J Med. 2017 Jul 6;377(1):62-70.]. See also basket trial design, adaptive design, master protocol.",
                    "preferredTerm": "Basket Trial",
                    "submissionValue": "basket trial"
                },
                {
                    "conceptId": "C142403",
                    "definition": "Approaches to data analysis that provide a posterior probability distribution for some parameter (e.g., treatment effect), derived from the observed data and a prior probability distribution for the parameter. The posterior distribution is then used as the basis for statistical inference. [ICH E9 Glossary]",
                    "preferredTerm": "Bayesian Approach",
                    "submissionValue": "Bayesian approaches"
                },
                {
                    "conceptId": "C142404",
                    "definition": "Statistical approach named for Thomas Bayes (1701-1761) that has among its features giving a subjective interpretation to probability, accepting the idea that it is possible to talk about the probability of hypotheses being true and of parameters having particular values.",
                    "preferredTerm": "Bayesian Statistics",
                    "submissionValue": "Bayesian statistics"
                },
                {
                    "conceptId": "C142405",
                    "definition": "Probability of showing no significant difference when a true difference exists; a false acceptance of the null hypothesis. See also Type 2 error. [AMA Manual of style]",
                    "preferredTerm": "Beta Error",
                    "submissionValue": "beta error"
                },
                {
                    "conceptId": "C28232",
                    "definition": "Bias refers to defects in study design, measurement, analysis or interpretation such that they cause a result to depart from the true value in a consistent direction. [after AMA Manual of style, ICH E9, CONSORT Statement]",
                    "preferredTerm": "Bias",
                    "submissionValue": "bias"
                },
                {
                    "conceptId": "C16341",
                    "definition": "Methods for quantitative measurement of a drug, drug metabolites, or chemicals in biological fluids.",
                    "preferredTerm": "Bioassay",
                    "submissionValue": "bioanalytical assays"
                },
                {
                    "conceptId": "C70913",
                    "definition": "Rate and extent to which a drug is absorbed or is otherwise available to the treatment site in the body.",
                    "preferredTerm": "Bioavailability",
                    "submissionValue": "bioavailability"
                },
                {
                    "conceptId": "C71763",
                    "definition": "Scientific basis on which drugs with the same active ingredient(s) are compared. NOTE: To be considered bioequivalent, the bioavailability of two products must not differ significantly when the two products are given in studies at the same dosage under similar conditions.",
                    "preferredTerm": "Bioequivalence",
                    "submissionValue": "bioequivalence"
                },
                {
                    "conceptId": "C307",
                    "definition": "A product of biological origin applicable to the prevention, treatment, or cure of a disease or condition. Such products may include virus, therapeutic serum, toxin, antitoxin, vaccine, blood, blood component or derivative, allergenic product, protein, or analogous product. NOTE: Biological products may be produced through biotechnology in a living system, such as a microorganism, plant cell, or animal cell. Biological products are generally large, complex molecules and are often more difficult to characterize than small molecule drugs. [After 21 CFR 600.3; After FDA Biological Product Definitions] See also vaccine, cell therapy, gene therapy, pharmaceutical product, drug product, medicinal product.",
                    "preferredTerm": "Biological Agent",
                    "submissionValue": "biological product"
                },
                {
                    "conceptId": "C71778",
                    "definition": "Biologics licensing application (BLA). an application to FDA for a license to market a new biologic product in the United states.",
                    "preferredTerm": "Biologics License Application",
                    "submissionValue": "Biologics licensing application (BLA)"
                },
                {
                    "conceptId": "C16342",
                    "definition": "A defined characteristic that is measured as an indicator of normal biological processes, pathogenic processes, or responses to an exposure or intervention, including therapeutic interventions. Molecular, histologic, radiographic, or physiologic characteristics are types of biomarkers. A biomarker is not an assessment of how an individual feels, functions, or survives. Categories of biomarkers include: susceptibility/risk biomarker; diagnostic biomarker; monitoring biomarker; prognostic biomarker; predictive biomarker; safety biomarker; pharmacodynamic/response biomarker. [NIH-FDA BEST (Biomarkers, Endpoints, and other Tools) Resource, https://www.ncbi.nlm.nih.gov/books/NBK338448/]",
                    "preferredTerm": "Biomarker",
                    "submissionValue": "biomarker",
                    "synonyms":
                    [
                        "biological marker"
                    ]
                },
                {
                    "conceptId": "C142406",
                    "definition": "A signature based on the verification of an individual's identity, based on measurement of the individual's physical feature(s) or repeatable action(s), where those features and/or actions are both unique to that individual, and measureable [21 CFR 11]",
                    "preferredTerm": "Biometric Signature",
                    "submissionValue": "biometric signature"
                },
                {
                    "conceptId": "C156644",
                    "definition": "A biological product that is highly similar to the reference product notwithstanding minor differences in clinically inactive components. This requires that there are no clinically meaningful differences between the biological product and the reference product in terms of the safety, purity, and potency of the product (see section 351(i)(2) of the PHS Act). [after FDA, Guidance for Industry: Quality Considerations in Demonstrating Biosimilarity of a Therapeutic Protein Product to a Reference Product]",
                    "preferredTerm": "Biosimilar",
                    "submissionValue": "biosimilar"
                },
                {
                    "conceptId": "C16347",
                    "definition": "Branch of statistics applied to the analysis of biological phenomena.",
                    "preferredTerm": "Biostatistics",
                    "submissionValue": "biostatistics"
                },
                {
                    "conceptId": "C142407",
                    "definition": "Checking and assessing data prior to breaking the blind, for the purpose of finalizing the planned analysis. [Modified ICH E9]",
                    "preferredTerm": "Blind Review",
                    "submissionValue": "blind review"
                },
                {
                    "conceptId": "C142408",
                    "definition": "Products that appear identical in size, shape, color, flavor, and other attributes to make it very difficult for subjects and investigators (or anyone assessing the outcome) to determine which medication is being administered.",
                    "preferredTerm": "Blinded Medication",
                    "submissionValue": "blinded (masked) medications"
                },
                {
                    "conceptId": "C70840",
                    "definition": "A study in which the subject, the investigator, or anyone assessing the outcome is unaware of the treatment assignment(s). NOTE: Blinding is used to reduce the potential for bias. [Modified ICH E6 Glossary] See also blinding/masking, double-blind study, single-blind study, triple-blind study; contrast with open-label or unblinded study.",
                    "preferredTerm": "Blinded Clinical Study",
                    "submissionValue": "blinded study"
                },
                {
                    "conceptId": "C49068",
                    "definition": "A procedure to limit bias by preventing subjects and/ or study personnel from identifying which treatments or procedures are administered, or from learning the results of tests and measures undertaken as part of a clinical investigation. [After Abhaya Indrayan, Martin P. Holt. Concise Encyclopedia of Biostatistics for Medical Professionals. Chapman & Hall; November 17, 2016] See also double-blind study, single-blind study, triple-blind study. Contrast with open-label and/or unblinded study, masking.",
                    "preferredTerm": "Blinded",
                    "submissionValue": "blinding"
                },
                {
                    "conceptId": "C28221",
                    "definition": "The collection of blood from a vein, most commonly via needle venipuncture. (NCI)",
                    "preferredTerm": "Phlebotomy",
                    "submissionValue": "blood draw"
                },
                {
                    "conceptId": "C142701",
                    "definition": "Point within a study design where there is an allocation of subject subsets to particular procedures or treatment groups.",
                    "preferredTerm": "Study Branch",
                    "submissionValue": "branch"
                },
                {
                    "conceptId": "C80012",
                    "definition": "Computer program that runs on the user's desktop computer and is used to navigate the World Wide Web. See also web browser.",
                    "preferredTerm": "HTML Browser",
                    "submissionValue": "browser"
                },
                {
                    "conceptId": "C63626",
                    "definition": "Storage area on a computer's hard drive where the browser stores (for a limited time) web pages and/or graphic elements.",
                    "preferredTerm": "Memory Cache",
                    "submissionValue": "cache"
                },
                {
                    "conceptId": "C142409",
                    "definition": "Effects of treatment that persist after treatment has been stopped, sometimes beyond the time of a medication's known biological activity.",
                    "preferredTerm": "Carry-Over Effect",
                    "submissionValue": "carry-over effect"
                },
                {
                    "conceptId": "C142588",
                    "definition": "An adequate and accurate record prepared and maintained by an investigator that records all observations and other data pertinent to the investigation of each individual administered the investigational drug (device or other therapy) or employed as a control in the investigation. NOTE: Case histories include the case report forms and supporting data including, for example, signed and dated consent forms and medical records including, for example, progress notes of the physician, the individual's hospital chart(s), and the nurses' notes. The case history for each individual shall document that informed consent was obtained prior to participation in the study. [21 CFR 312.62(b)]",
                    "preferredTerm": "Investigational Subject Case History",
                    "submissionValue": "case history"
                },
                {
                    "conceptId": "C40988",
                    "definition": "A printed, optical, or electronic document designed to record all of the protocol-required information to be reported to the sponsor for each trial subject. NOTE: In common usage, CRF can refer to either a CRF page, which denotes a group of one or more data items, linked together for collection and display, or a casebook, which includes the entire group of CRF pages on which a set of clinical study observations can be or have been collected by completion of such CRF pages for a subject in a clinical study. See also CRF (paper), eCRF. [ICH E6 Glossary, FDA Final Guidance on eSource].",
                    "preferredTerm": "Case Report Form",
                    "submissionValue": "case report form (CRF)",
                    "synonyms":
                    [
                        "case record form"
                    ]
                },
                {
                    "conceptId": "C142411",
                    "definition": "In a paper submission, listings of data that may be organized by domain (type of data) or by subject. See also eCRT.",
                    "preferredTerm": "Case Report Tabulation",
                    "submissionValue": "case report tabulations (CRT)"
                },
                {
                    "conceptId": "C15197",
                    "definition": "Retrospective study in which individuals to an outcome (cases) are compared with those who do not have the outcome (controls). NOTE: The outcome variable (disease, event, experience, biomarker) is chosen first, and the exposure is evaluated in cases vs controls to see whether there is an association between exposure and outcome. [After AMA Manual of Style] See also outcome, observational study.",
                    "preferredTerm": "Case-Control Study",
                    "submissionValue": "case-control study"
                },
                {
                    "conceptId": "C142412",
                    "definition": "Data evaluated by sorting values (for example, severe, moderate, and mild) into various categories.",
                    "preferredTerm": "Categorical Data",
                    "submissionValue": "categorical data"
                },
                {
                    "conceptId": "C142413",
                    "definition": "An evaluation performed by a medical professional concerning the likelihood that a therapy or product under study caused or contributed to an adverse event.",
                    "preferredTerm": "Causality Assessment",
                    "submissionValue": "causality assessment"
                },
                {
                    "conceptId": "C142415",
                    "definition": "A global, accessible, electronic library, which, through advanced technology, enables precise and standardized data element definitions that can be used within applications and across studies to improve biomedical research and its link with healthcare. NOTE: Formerly known as CDISC SHARE. [CDISC]",
                    "preferredTerm": "CDISC Library",
                    "submissionValue": "CDISC Library"
                },
                {
                    "conceptId": "C142416",
                    "definition": "A set of models, implementation guides, controlled vocabularies, and exchange formats developed by the Clinical Data Interchange Standards Consortium (CDISC), which are intended to provide for consistent use of common representations of data, terms and specifications. NOTE: These standards apply to translational research, electronic submission of clinical data, and the life-cycle of clinical product development, which includes protocol representation, data collection, aggregation, tabulation, and analysis and unambiguous information exchange across disparate systems. [After https://www.ncbi.nlm.nih.gov]. See also standard, data standards, Study Data Standardization Plan, and Standards Development Organization.",
                    "preferredTerm": "CDISC Standard",
                    "submissionValue": "CDISC standards"
                },
                {
                    "conceptId": "C70601",
                    "definition": "The prevention or treatment of human disease by the administration of cells that have been selected, multiplied, and pharmacologically treated or altered outside the body (ex vivo), or methods (pharmacological as well as nonpharmacological) to modify the function of intrinsic cells of the body for therapeutic purposes (in vivo). NOTE: Cell therapies can be classified based on therapeutic indication, cell type, source of cells, and underlying technology, among others, in medical and regulatory contexts. [After https://www.sciencedirect.com/topics/neuroscience/cell-therapy; After Regulation (EC) No 1394/2007 of the European Parliament and of the Council of 13 November 2007.] See also regenerative medicine therapy, regenerative medicine advanced therapy, gene therapy, biological product.",
                    "preferredTerm": "Cellular Therapy",
                    "submissionValue": "cell therapy"
                },
                {
                    "conceptId": "C142417",
                    "definition": "A copy (irrespective of the type of media used) of the original record that has been verified (i.e., by a dated signature or by generation through a validated process) to have the same information, including data that describe the context, content, and structure, as the original. [ICH E6 (R2)]",
                    "preferredTerm": "Certified Copy",
                    "submissionValue": "certified copy"
                },
                {
                    "conceptId": "C142418",
                    "definition": "Persons certified to participate on an institutional review board, who satisfy the educational and employment requirements and pass an examination conducted by the applied Research ethics national association (aRena), the membership division of Public Responsibility in Medicine and Research (PRiM&R).",
                    "preferredTerm": "Certified IRB Professional",
                    "submissionValue": "certified IRB professional (CIP)"
                },
                {
                    "conceptId": "C158128",
                    "definition": "A non-investigational medicinal product (NIMP) given to trial subjects to produce a physiological response that is necessary before the pharmacological action of the investigational medicinal product can be assessed. [After Recommendations from the expert group on clinical trials for the implementation of Regulation (EU) No 536/2014' dd 28 June 2017]",
                    "preferredTerm": "Challenge Agent",
                    "submissionValue": "challenge agent"
                },
                {
                    "conceptId": "C156647",
                    "definition": "CHI began as an eGov initiative to establish a portfolio of existing health information interoperability standards (health vocabulary and messaging) enabling all agencies in the federal health enterprise to \"speak the same language\" based on common enterprise-wide business and information technology architectures. CHI is currently managed under the Office of the National Coordinator for Health Informational Technology's (ONC) Federal Health Architecture (FHA) Program Management Office. Ref: The United States Health Information Knowledgebase [USHIK]. [HITSP]",
                    "preferredTerm": "Consolidated Health Informatics",
                    "submissionValue": "CHI (consolidated health informatics)"
                },
                {
                    "conceptId": "C41106",
                    "definition": "A definition of objects with properties (attributes, methods, relationships) that all objects in the class have in common. [HL7, 2001] in data modeling, a class defines a set of objects that share the same attributes, relationships, and semantics. A class is usually an entity that represents a person, place, or thing.",
                    "preferredTerm": "Object Class",
                    "submissionValue": "class"
                },
                {
                    "conceptId": "C142419",
                    "definition": "A set of reviewed data in which errors have been resolved to meet QA requirements for error rate and in which measurements and other values are provided in acceptable units; database that is ready to be locked. See also database lock, clean file.",
                    "preferredTerm": "Clean Database",
                    "submissionValue": "clean database"
                },
                {
                    "conceptId": "C142420",
                    "definition": "When all data cleaning is completed and database is ready for quality review and unblinding.",
                    "preferredTerm": "Clean File",
                    "submissionValue": "clean file"
                },
                {
                    "conceptId": "C142421",
                    "definition": "A program that makes a service request of another program, usually running on a server, that fulfills the request. Web browsers (such as Firefox and Microsoft explorer) are clients that request HTML files from web servers.",
                    "preferredTerm": "Client Computer",
                    "submissionValue": "client"
                },
                {
                    "conceptId": "C142422",
                    "definition": "A therapeutic intervention may be said to confer clinical benefit if it prolongs life, improves function, and/or improves the way a subject feels.",
                    "preferredTerm": "Clinical Benefit",
                    "submissionValue": "clinical benefit"
                },
                {
                    "conceptId": "C142423",
                    "definition": "A query resolution received from the sponsor staff (medical monitors, DSMB monitoring board, etc.). See also self-evident change.",
                    "preferredTerm": "Clinical Clarification",
                    "submissionValue": "clinical clarification"
                },
                {
                    "conceptId": "C15783",
                    "definition": "Data pertaining to the medical well-being or status of a patient. Category also includes clinical reports and individual patient data (IPD) as defined in the EMA Policy 0070 Implementation Guide. [http://www.ema.eoropa.eu/docs/en_GB/document_library/REPORT/2014/10/WC500174378.PDF]",
                    "preferredTerm": "Clinical Data",
                    "submissionValue": "clinical data"
                },
                {
                    "conceptId": "C142424",
                    "definition": "A document that describes the collection of clinical studies that are to be performed in sequence, or in parallel, with a particular active substance, device, procedure, or treatment strategy, typically with the intention of submitting them as part of an application for a marketing authorization. NOTE: The plan should have appropriate decision points and allow modification as knowledge accumulates. [from ICH E9] See also development plan.",
                    "preferredTerm": "Clinical Development Plan",
                    "submissionValue": "clinical development plan"
                },
                {
                    "conceptId": "C142426",
                    "definition": "Specification for the structure and semantics of \"clinical documents\" for the purpose of exchange. [HL7; SPL]",
                    "preferredTerm": "Clinical Document Architecture",
                    "submissionValue": "clinical document architecture"
                },
                {
                    "conceptId": "C142425",
                    "definition": "A documentation of clinical observations and services. NOTE: an electronic document should incorporate the following characteristics: persistence, stewardship, potential for authentication, wholeness, and human readability. [SPL]",
                    "preferredTerm": "Clinical Document",
                    "submissionValue": "clinical document"
                },
                {
                    "conceptId": "C39547",
                    "definition": "Power or capacity to produce a desired effect (i.e., appropriate pharmacological activity in a specified indication) in humans. [SQA]",
                    "preferredTerm": "Treatment Efficacy",
                    "submissionValue": "clinical efficacy"
                },
                {
                    "conceptId": "C142427",
                    "definition": "Contact between subject/patient and healthcare practitioner/researcher, during which an assessment or activity is performed. Contact may be physical or virtual. [CDISC]",
                    "preferredTerm": "Clinical Encounter",
                    "submissionValue": "clinical encounter"
                },
                {
                    "conceptId": "C70755",
                    "definition": "An order issued by FDA to the sponsor to delay a proposed clinical investigation or to suspend an ongoing investigation. NOTE: The clinical hold order may apply to one or more of the investigations covered by an IND. [21 CFR 312.42] See also suspension (of a clinical trial), termination (of a clinical trial), temporary halt (of a clinical trial).",
                    "preferredTerm": "Study on Hold",
                    "submissionValue": "clinical hold (of a clinical trial)"
                },
                {
                    "conceptId": "C142430",
                    "definition": "Any experiment that involves a test article and one or more human subjects, and that either must meet the requirements for prior submission to the FDA or the results of which are intended to be later submitted to, or held for inspection by, the FDA as part of an application for a research or marketing permit. Considered synonymous with clinical research by FDA. See clinical study, clinical trial. [FDA Science & Research]",
                    "preferredTerm": "Clinical Investigation",
                    "submissionValue": "clinical investigation"
                },
                {
                    "conceptId": "C142552",
                    "definition": "A formal conclusion by FDA that, within the stated context of use, the results of the COA measurement can be relied upon to have a specific interpretation and application. NOTE: For qualified COAs, FDA permits drug developers to use the COA in the qualified context in IND and NDA/BLA submissions without requesting that the relevant CDER review group reconsider and reconfirm the suitability of the COA. [FDA Clinical Outcome Assessment (COA) Glossary]",
                    "preferredTerm": "FDA Clinical Outcome Assessment Qualification",
                    "submissionValue": "clinical outcome assessment (COA) qualification"
                },
                {
                    "conceptId": "C142378",
                    "definition": "Any assessment that may be influenced by human choices, judgment, or motivation and may support or refute treatment benefit. NOTE: Unlike biomarkers that rely completely on an automated process or algorithm, COAs reflect interpretation of reporting from a patient, a clinician, or an observer. There are four types of COAs. See also patient-reported outcome (PRO), clinician-reported outcome (ClinRO), observer-reported outcome (ObsRO), and performance outcome (PerfO). [FDA Clinical Outcome Assessment (COA) Glossary]",
                    "preferredTerm": "Clinical Outcome Assessment",
                    "submissionValue": "clinical outcome assessment (COA)"
                },
                {
                    "conceptId": "C16975",
                    "definition": "Science that deals with the characteristics, effects, properties, reactions, and uses of drugs, particularly their therapeutic value in humans, including their toxicology, safety, pharmacodynamics, and pharmacokinetics (ADME).",
                    "preferredTerm": "Clinical Pharmacology",
                    "submissionValue": "clinical pharmacology"
                },
                {
                    "conceptId": "C142435",
                    "definition": "The testing of a drug compound in humans primarily done to determine its safety and pharmacological effectiveness. Clinical development is done in phases, which progress from very tightly controlled dosing of a small number of subjects to less tightly controlled studies involving large numbers of patients. [SQA]",
                    "preferredTerm": "Clinical Research and Development",
                    "submissionValue": "clinical research and development"
                },
                {
                    "conceptId": "C25465",
                    "definition": "Person employed by a study sponsor or by a contract research organization (CRO) acting on a sponsor's behalf, who monitors the status, data integrity, and protocol adherence of investigator sites participating in a clinical study. See also sponsor.",
                    "preferredTerm": "Clinical Research Associate",
                    "submissionValue": "clinical research associate (CRA)"
                },
                {
                    "conceptId": "C51811",
                    "definition": "A qualified study staff member who manages the participation of subjects according to the study protocol. NOTE: CRCs coordinate communication among the subject, investigator, and sponsor. Responsibilities may also include screening, enrollment, monitoring of potential participants, and informed consent. [After Clinical Research Manual: Practical Tools and Templates for Managing Clinical Research Cavalieri Jennifer and Rupp Mark Clinical Research Manual: Practical Tools and Templates for Managing Clinical Research 336pp US$44.95 Sigma Theta Tau 9781937554637 1937554635 [Formula: see text]. Nurs Manag (Harrow). 2014 Aug 28;21(5):13.; After SOCRA]",
                    "preferredTerm": "Clinical Coordinator",
                    "submissionValue": "clinical research coordinator (CRC)",
                    "synonyms":
                    [
                        "clinical coordinator",
                        "research coordinator",
                        "study coordinator",
                        "trial coordinator"
                    ]
                },
                {
                    "conceptId": "C70668",
                    "definition": "A person who is enrolled into a clinical study or trial. See also study, trial, and study population.",
                    "preferredTerm": "Clinical Study Subject",
                    "submissionValue": "clinical research subject"
                },
                {
                    "conceptId": "C82562",
                    "definition": "Change in a subject's clinical condition regarded as important whether or not due to the test intervention. NOTE: some statistically significant changes (in blood tests, for example) have no clinical significance. The criterion or criteria for clinical significance should be stated in the protocol. The term \"clinical significance\" is not advisable unless operationally defined.",
                    "preferredTerm": "Clinical Significance",
                    "submissionValue": "clinical significance"
                },
                {
                    "conceptId": "C142437",
                    "definition": "A single observation associated with a subject in a clinical study. A data element in an eCRF represents the smallest unit of observation captured for a subject in a clinical investigation. NOTE: Examples include birth date, white blood cell count, pain severity measure, and other clinical observations made and documented during a study. Data element identifiers should be attached to each data element as it is entered or transmitted by the originator into the eCRF. See also eCRF, data element identifier, data originator, item. [After FDA Guidance for Industry Electronic Source Data in Clinical Investigations , Body text and Glossary]",
                    "preferredTerm": "Clinical Study Data Element",
                    "submissionValue": "clinical study data element"
                },
                {
                    "conceptId": "C142439",
                    "definition": "A written description of a study of any therapeutic, prophylactic, or diagnostic agent conducted in human subjects, in which the clinical and statistical description, presentations, and analysis are fully integrated into a single report. NOTE: For further information, see the ICH Guideline for Structure and Content of Clinical Study Reports. [ICH E6 Glossary]",
                    "preferredTerm": "Clinical Study Report",
                    "submissionValue": "clinical study report"
                },
                {
                    "conceptId": "C15206",
                    "definition": "A clinical study involves research using human volunteers (also called participants) that is intended to add to medical knowledge. There are two main types of clinical studies: clinical trials (also called interventional studies) and observational studies. [ClinicalTrials.gov] See also clinical trial.",
                    "preferredTerm": "Clinical Study",
                    "submissionValue": "clinical study"
                },
                {
                    "conceptId": "C142440",
                    "definition": "Authorization granted by a Medicines Regulatory Agency to conduct a clinical trial in a jurisdiction. NOTE: If an ethical committee allows a trial to proceed it is called an approval to proceed. [After ISO 11615:2017, 3.1.12]",
                    "preferredTerm": "Clinical Trial Authorization",
                    "submissionValue": "clinical trial authorization"
                },
                {
                    "conceptId": "C142441",
                    "definition": "Data collected in the course of a clinical trial. See also clinical trial information.",
                    "preferredTerm": "Clinical Trial Data",
                    "submissionValue": "clinical trial data"
                },
                {
                    "conceptId": "C142446",
                    "definition": "A scheme that allows sponsors to apply for approval for each clinical study in turn, submitting supporting data to the Medicines Control Agency (MCA), which approves or rejects the application (generally within 35 working days). NOTE: Approval means that the company is exempt from the requirement to hold a clinical trial certificate (CTC). [UK]",
                    "preferredTerm": "Clinical Trial Exemption",
                    "submissionValue": "clinical trial exemption (CTX)"
                },
                {
                    "conceptId": "C142447",
                    "definition": "Data collected in the course of a clinical trial or documentation related to the integrity or administration of that data. A superset of clinical trial data.",
                    "preferredTerm": "Clinical Trial Information",
                    "submissionValue": "clinical trial information"
                },
                {
                    "conceptId": "C142449",
                    "definition": "Complete set of supplies provided to an investigator by the trial sponsor.",
                    "preferredTerm": "Clinical Trial Material",
                    "submissionValue": "clinical trial materials"
                },
                {
                    "conceptId": "C142452",
                    "definition": "A web-based publicly accessible platform for providing structured information about clinical trials. NOTE: Such registries help patients, family members, health care professionals, researchers, and the public identify studies in which they might participate. Some registries include clinical trial results. Examples include: EU Clinical Trials Register (EU CTR), for studies in the EU or the EEA after 1 May 2001; ClinicalTrials.gov, a web-based resource from the National Library of Medicine (NLM) in the US. [After International Committee of Medical Journal Editors]",
                    "preferredTerm": "Clinical Trial Registry",
                    "submissionValue": "clinical trial registry"
                },
                {
                    "conceptId": "C156620",
                    "definition": "A web-based publicly accessible platform for providing structured summary results information about clinical trials. See also clinical trial registry.",
                    "preferredTerm": "Clinical Trial Results Registry",
                    "submissionValue": "clinical trial results registry"
                },
                {
                    "conceptId": "C71104",
                    "definition": "A research investigation involving human subjects that is designed to answer specific questions about the safety and efficacy of a biomedical intervention (drug, treatment, device) or new ways of using a known drug, treatment, or device). NOTE: NIH Office of Science Policy further specifies that a clinical trial is a type of research study that prospectively assigns subjects to interventions, and the EU clinical trial regulations set forth 3 specific conditions, any one of which qualifies a study as a clinical trial. These conditions include applying diagnostic or monitoring procedures not used in normal clinical practice to subjects. [After ICH E6 [R2], EU CTR 2014] See also clinical study, clinical investigation, randomized controlled trial (RCT).",
                    "preferredTerm": "Clinical Trial",
                    "submissionValue": "clinical trial",
                    "synonyms":
                    [
                        "Interventional Clinical Trial",
                        "Interventional Study"
                    ]
                },
                {
                    "conceptId": "C142453",
                    "definition": "A type of clinical outcome assessment. A measurement based on a report that comes from a trained health-care professional after observation of a patient's health condition. [After BEST Resource]",
                    "preferredTerm": "Clinician-reported Outcome",
                    "submissionValue": "clinician-reported outcome (ClinRO)"
                },
                {
                    "conceptId": "C165824",
                    "definition": "Two or more separate products packaged together in a single package or as a unit and composed of drug and device products, device and biological products, or biological and drug products. [After 21 CFR 3.2 (e) FAQ] See also combination product, single-entity product, cross-labeled product.",
                    "preferredTerm": "Co-packaged Product",
                    "submissionValue": "co-packaged product"
                },
                {
                    "conceptId": "C142454",
                    "definition": "Finite list of codes and their meanings that represent the only allowed values for a data item. A codelist is one type of controlled vocabulary. See also controlled vocabulary.",
                    "preferredTerm": "Codelist",
                    "submissionValue": "codelist"
                },
                {
                    "conceptId": "C80216",
                    "definition": "In clinical trials, the process of assigning data to categories for analysis. NOTE: Adverse events, for example, may be coded using MedDRA.",
                    "preferredTerm": "Encode",
                    "submissionValue": "coding"
                },
                {
                    "conceptId": "C142455",
                    "definition": "A qualitative research tool used to determine whether concepts and items are understood by patients in the same way that PRO instrument developers intend. NOTE: Cognitive debriefing interviews involve incorporating follow-up questions in a field test interview to gain better understanding of how patients interpret questions asked of them and to collect and consider all concepts elicited by an item. [from PRO Draft Guidance Glossary]",
                    "preferredTerm": "Cognitive Debriefing",
                    "submissionValue": "cognitive debriefing"
                },
                {
                    "conceptId": "C15208",
                    "definition": "Study of a group of individuals, some of whom are exposed to a variable of interest, in which subjects are followed over time. NOTE: Cohort studies can be prospective or retrospective. [After AMA Manual of Style] See also prospective study, observational study, retrospective study, case-control study, cohort.",
                    "preferredTerm": "Cohort Study",
                    "submissionValue": "cohort study"
                },
                {
                    "conceptId": "C61512",
                    "definition": "A group of individuals who share a common exposure, experience or characteristic or a group of individuals followed-up or traced over time in a cohort study. [AMA Manual of Style] See also cohort study.",
                    "preferredTerm": "Cohort",
                    "submissionValue": "cohort"
                },
                {
                    "conceptId": "C54696",
                    "definition": "A product composed of two or more different types of medical products (i.e., a combination of a drug, device, and/or biological product with one another and are referred to as \"constituent parts\" of the combination product). NOTE: A combination product might be a single-entity product, a co-packaged product or a cross-labeled product. [After 21 CFR 3.2 (e)] See also single-entity product, co-packaged product, cross-labeled product.",
                    "preferredTerm": "Combination Product",
                    "submissionValue": "combination product"
                },
                {
                    "conceptId": "C142456",
                    "definition": "Any information contained in clinical reports or other documents that is not in the public domain or publicly available and where disclosure may undermine the legitimate economic interest of the company (the Marketing Application Holder) and cause harm (if disclosed). [After EMA Policy 0070 implementation Guide]",
                    "preferredTerm": "Commercially Confidential Information",
                    "submissionValue": "commercially confidential information (CCI)"
                },
                {
                    "conceptId": "C19984",
                    "definition": "A structured item characterized by a stem and response options together with a history of usage that can be standardized for research purposes across studies conducted by and for NIH. NOTE: The mark up or tagging facilitates document indexing, search and retrieval, and provides standard conventions for insertion of codes. [NCI, CaBIG]. See also item, item (PRO), stem, data element, data element identifier.",
                    "preferredTerm": "Common Data Element",
                    "submissionValue": "common data element (CDE)"
                },
                {
                    "conceptId": "C142575",
                    "definition": "A format agreed upon by ICH to organize applications to regulatory authorities for registration of pharmaceuticals for human use. [ICH] See also eCTD.",
                    "preferredTerm": "ICH Common Technical Document",
                    "submissionValue": "Common Technical Document"
                },
                {
                    "conceptId": "C203916",
                    "definition": "A type of study in which the intervention of interest is compared against another intervention(s) of interest to see if there is evidence about the effectiveness, benefits and harms of different treatment options. [NCI]",
                    "preferredTerm": "Comparative Effectiveness Research",
                    "submissionValue": "Comparative Effectiveness Research (CER)"
                },
                {
                    "conceptId": "C142457",
                    "definition": "One in which the investigative drug is compared against another product, either active drug or placebo.",
                    "preferredTerm": "Comparative Study",
                    "submissionValue": "comparative study"
                },
                {
                    "conceptId": "C142458",
                    "definition": "An investigational or marketed product (i.e., active control), or placebo, used as a reference in a clinical trial. [ICH E6 Glossary] See also control.",
                    "preferredTerm": "Comparator",
                    "submissionValue": "comparator (product)"
                },
                {
                    "conceptId": "C202465",
                    "definition": "A name within a pharmaceutical compendium that designates a small or large molecule substance that complies with compendial standards for strength, quality, and purity. NOTE: Used for all drugs within the US. [After USP Nomenclature Guidelines (last revision on March 30, 2020)] See also proprietary name, generic name, international nonproprietary name (INN), established name, medicinal product name.",
                    "preferredTerm": "Compendial Name",
                    "submissionValue": "compendial name"
                },
                {
                    "conceptId": "C142544",
                    "definition": "The regulatory body charged with monitoring compliance with the national statutes and regulations of European Member States.",
                    "preferredTerm": "European Union Competent Authority",
                    "submissionValue": "Competent Authority (CA)"
                },
                {
                    "conceptId": "C142734",
                    "definition": "Adherence to specifications in the study protocol and regulations by patients, investigators, and other study staff. NOTE: The investigator and sponsor have obligations to follow the protocol and GCP. [After Spilker, B. Guide to Clinical Trials. Lippincott Williams & Wilkins. 2000.]",
                    "preferredTerm": "Trial Compliance",
                    "submissionValue": "compliance (in relation to trials)"
                },
                {
                    "conceptId": "C42608",
                    "definition": "Software designed to fill specific needs of a user; for example, software for navigation, project management, or process control.",
                    "preferredTerm": "Computer Application",
                    "submissionValue": "computer application",
                    "synonyms":
                    [
                        "application software"
                    ]
                },
                {
                    "conceptId": "C142433",
                    "definition": "In the context of clinical outcomes, the thing measured by a COA assessment (e.g., pain intensity). [After Clinical Outcome Assessment (COA) Glossary of Terms FDA FDA eCOA Glossary]",
                    "preferredTerm": "Clinical Outcomes Assessment Concept of Interest",
                    "submissionValue": "concept of interest"
                },
                {
                    "conceptId": "C45728",
                    "definition": "Discrete notion having a single meaning. In a controlled vocabulary a concept is mapped to one or more of the words that convey its meaning.",
                    "preferredTerm": "Concept",
                    "submissionValue": "concept"
                },
                {
                    "conceptId": "C156640",
                    "definition": "A classification of a Member States in the Mutual Recognition Procedure (MRP) in the European authorization route resulting in a mutually recognized product. In the Mutual Recognition Procedure, one or more Member States that is a CMS is asked to mutually recognize the Market Authorization of the Reference Member State (RMS). [After Heads of Medicines Agencies (HMA) website http://www.hma.eu/medicinesapprovalsystem.html] See also Mutual Recognition Procedure (MRP) and Reference Member State (RMS).",
                    "preferredTerm": "Concerned Member State",
                    "submissionValue": "concerned member state (CMS)"
                },
                {
                    "conceptId": "C153144",
                    "definition": "An ongoing and/or past performance of a formal investigation as specified in a study protocol. [NCI]",
                    "preferredTerm": "Study Conduct",
                    "submissionValue": "conduct"
                },
                {
                    "conceptId": "C53324",
                    "definition": "A measure of the precision of an estimated value. The interval represents the range of values, consistent with the data, that is believed to encompass the \"true\" value with high probability (usually 95%). The confidence interval is expressed in the same units as the estimate. Wider intervals indicate lower precision; narrow intervals, greater precision. [CONSORT Statement]",
                    "preferredTerm": "Confidence Interval",
                    "submissionValue": "confidence interval (CI)"
                },
                {
                    "conceptId": "C16466",
                    "definition": "Prevention of disclosure to other than authorized individuals of a sponsor's proprietary information or of a subject's identity. [ICH E6 Glossary]",
                    "preferredTerm": "Confidentiality",
                    "submissionValue": "confidentiality"
                },
                {
                    "conceptId": "C142460",
                    "definition": "Phase 3 trial with results that confirm the preliminary evidence accumulated in earlier phases that a drug is safe and effective for use for the intended indication and recipient population. [After ICH E8] See also non-confirmatory trial result, pragmatic trial. Compare to exploratory trial.",
                    "preferredTerm": "Confirmatory Trial",
                    "submissionValue": "confirmatory trial"
                },
                {
                    "conceptId": "C142461",
                    "definition": "The process by which compliance with the EMA's essential requirements is assessed. See also Notified Body (NB).",
                    "preferredTerm": "Conformity Assessment",
                    "submissionValue": "conformity assessment"
                },
                {
                    "conceptId": "C209462",
                    "definition": "A factor that may interfere with the interpretation of the effect of an exposure on an outcome. [After AMA Manual of Style]",
                    "preferredTerm": "Confounding Variable",
                    "submissionValue": "confounding variable"
                },
                {
                    "conceptId": "C16468",
                    "definition": "Document used during the informed consent process that is the basis for explaining to potential subjects the risks and potential benefits of a study and the rights and responsibilities of the parties involved. NOTE: The informed consent document provides a summary of a clinical trial (including its purpose, the treatment procedures and schedule, potential risks and benefits, alternatives to participation, etc.) and explains an individual's rights as a subject. it is designed to begin the informed consent process, which consists of conversations between the subject and the research team. if the individual then decides to enter the trial, s/he gives her/his official consent by signing the document. Informed consent is sometimes administered electronically, i.e., eICF. See also informed consent.",
                    "preferredTerm": "Consent Form",
                    "submissionValue": "consent form",
                    "synonyms":
                    [
                        "informed consent form"
                    ]
                },
                {
                    "conceptId": "C156633",
                    "definition": "Establishing, using quantitative methods, the extent to which the relationships among items, domains, and concepts of a clinical outcome assessment (COA) conform to a priori hypotheses concerning logical relationships that should exist with other measures or characteristics of patients and patient groups. [NIH-FDA BEST (Biomarkers, Endpoints, and other Tools) Resource, https://www.ncbi.nlm.nih.gov/books/NBK338448/] See also validation.",
                    "preferredTerm": "Clinical Outcome Assessment Construct Validation",
                    "submissionValue": "construct validation (COA)",
                    "synonyms":
                    [
                        "construct validation (re COA)"
                    ]
                },
                {
                    "conceptId": "C142462",
                    "definition": "FDA official who coordinates the review process of various applications.",
                    "preferredTerm": "Consumer Safety Officer",
                    "submissionValue": "consumer safety officer (CSO)"
                },
                {
                    "conceptId": "C156632",
                    "definition": "Establishing from qualitative research the extent to which the clinical outcome assessment (COA) instrument measures the concept of interest including evidence that the items and domains of an instrument are appropriate and comprehensive relative to its intended measurement concept, population, and use. [NIH-FDA BEST (Biomarkers, Endpoints, and other Tools) Resource, https://www.ncbi.nlm.nih.gov/books/NBK338448/] See also validation.",
                    "preferredTerm": "Clinical Outcome Assessment Content Validation",
                    "submissionValue": "content validation (COA)",
                    "synonyms":
                    [
                        "content validation (re COA)"
                    ]
                },
                {
                    "conceptId": "C78690",
                    "definition": "The extent to which a variable (for example, a rating scale) measures what it is supposed to measure. [ICH E9 Glossary] evidence from qualitative research demonstrating that the instrument measures the concept of interest, including evidence that the items and domains of an instrument are appropriate and comprehensive, relative to its intended measurement concept, population, and use. NOTE: Testing other measurement properties will not replace or rectify problems with content validity. [FDA Final PRO Guidance]",
                    "preferredTerm": "Content Validity",
                    "submissionValue": "content validity"
                },
                {
                    "conceptId": "C142434",
                    "definition": "In the context of clinical outcomes, a comprehensive statement that fully and clearly describes and justifies the way a COA is to be used and the drug development-related purpose of the use. NOTE: The context of use defines the boundaries within which the available data adequately justify use of the COA and describes important criteria regarding the circumstances under which the COA is qualified. [FDA Clinical Outcome Assessment (COA) Glossary]",
                    "preferredTerm": "Clinical Outcomes Assessment Context of Use",
                    "submissionValue": "context of use"
                },
                {
                    "conceptId": "C142463",
                    "definition": "Planned response to an anticipated but conditional event in a clinical trial. [CDISC Trial Design Project]",
                    "preferredTerm": "Contingent Subject Trial Contact",
                    "submissionValue": "contingent subject trial contact"
                },
                {
                    "conceptId": "C54148",
                    "definition": "A person or an organization (commercial, academic, or other) contracted by the sponsor to perform one or more of a sponsor's trial-related duties and functions. [ICH E6 Glossary]",
                    "preferredTerm": "Contract Research Organization",
                    "submissionValue": "contract research organization (CRO)"
                },
                {
                    "conceptId": "C115464",
                    "definition": "A written, dated, and signed agreement between two or more involved parties that sets out any arrangements on delegation and distribution of tasks and obligations and, if appropriate, on financial matters. The protocol may serve as the basis of a contract. [ICH E6 Glossary]",
                    "preferredTerm": "Contractual Agreement",
                    "submissionValue": "contract"
                },
                {
                    "conceptId": "C28143",
                    "definition": "A cohort of study participants that is defined for the purpose of comparison to the treatment group in a controlled trial. NOTE: In an epidemiological study, this cohort may or may not have the outcome of interest. [After 21 CFR 314.126] See also control, controlled study, arm (protocol).",
                    "preferredTerm": "Control Group",
                    "submissionValue": "control group"
                },
                {
                    "conceptId": "C142464",
                    "definition": "To prepare and maintain case histories and other records for regulated clinical investigations or other regulated research. NOTE: Control is often used as a casual synonym for the terms in 21 CFR 312.62 requiring investigative sites to prepare, maintain, and retain adequate and accurate case histories. [After 1. 21 CFR 11; 2. CSUCT] See also record.",
                    "preferredTerm": "Control of Electronic Records",
                    "submissionValue": "control of electronic records"
                },
                {
                    "conceptId": "C142703",
                    "definition": "A comparator against which the study treatment is evaluated [e.g., concurrent (placebo, no treatment, dose-response, active), and external (historical, published literature, synthetic data)]. [After ICH E10]. See also comparator (product), control group, controlled study, arm (protocol), synthetic data.",
                    "preferredTerm": "Study Control",
                    "submissionValue": "control"
                },
                {
                    "conceptId": "C28279",
                    "definition": "A study in which a test article is compared with a treatment that has known effects (active control), no treatment, placebo, or dose comparison concurrent control, or external (historic) control. [21 CFR 314.126 and ICH E10]. See also control, comparator (product), control group.",
                    "preferredTerm": "Controlled Study",
                    "submissionValue": "controlled study"
                },
                {
                    "conceptId": "C48697",
                    "definition": "A finite set of values that represent the only allowed values for a data item. These values may be codes, text, or numeric. See also codelist.",
                    "preferredTerm": "Controlled Vocabulary",
                    "submissionValue": "controlled vocabulary",
                    "synonyms":
                    [
                        "controlled terminology"
                    ]
                },
                {
                    "conceptId": "C142465",
                    "definition": "A committee that a sponsor may organize to coordinate the conduct of a multicenter trial. [ICH E6]",
                    "preferredTerm": "Coordinating Committee",
                    "submissionValue": "coordinating committee"
                },
                {
                    "conceptId": "C51818",
                    "definition": "An investigator assigned the responsibility for the coordination of investigators at different centers participating in a multicenter trial. NOTE: Depending on the scope of the trial, coordination could be across centers/sites in a region, across regions, or within a nation. [ICH E6] See also investigator, investigator/institution, principal investigator, site investigator, sponsor-investigator, sub-investigator.",
                    "preferredTerm": "Coordinating Investigator",
                    "submissionValue": "coordinating investigator"
                },
                {
                    "conceptId": "C48834",
                    "definition": "The degree to which two or more variables are related. Typically the linear relationship is measured with either Pearson's correlation or spearman's Rho. NOTE: Correlation does not necessarily mean causation. [After Hyperstat Online Glossary; CDISC ADaM]",
                    "preferredTerm": "Correlation",
                    "submissionValue": "correlation"
                },
                {
                    "conceptId": "C142645",
                    "definition": "Factor or condition that influences outcome of a trial. [ADaM]",
                    "preferredTerm": "Prognostic Covariate",
                    "submissionValue": "covariate (prognostic)"
                },
                {
                    "conceptId": "C142625",
                    "definition": "Case report form in which the data items are linked by the physical properties of paper to particular pages. NOTE: Data are captured manually and any comments, notes, and signatures are also linked to those data items by writing or typescript on the paper pages. See also eCRF, case report form.",
                    "preferredTerm": "Paper Case Report Form",
                    "submissionValue": "CRF (paper)"
                },
                {
                    "conceptId": "C142410",
                    "definition": "Subset of clinical trial data that are entered into fields on a case report form.",
                    "preferredTerm": "Case Report Form Data",
                    "submissionValue": "CRF data"
                },
                {
                    "conceptId": "C156634",
                    "definition": "Establishing the extent to which the scores of a clinical outcome assessment instrument are related to a known gold standard measure of the same concept. For most COAs clinical outcome assessments (COAs), criterion validity cannot be measured because there is no gold standard. [NIH-FDA BEST (Biomarkers, Endpoints, and other Tools) Resource, https://www.ncbi.nlm.nih.gov/books/NBK338448/] See also validation.",
                    "preferredTerm": "Clinical Outcome Assessment Criterion Validation",
                    "submissionValue": "criterion validation (COA)",
                    "synonyms":
                    [
                        "criterion validation (re COA)"
                    ]
                },
                {
                    "conceptId": "C165825",
                    "definition": "An investigational drug, device, or biological product packaged separately that, according to its proposed labeling, is intended for use only with another investigational or approved individually specified drug, device, or biological product where both are required to achieve the intended use, indication, or effect. NOTE: In the case where an approved product is combined with an investigational product, upon approval of the cross-labeled product the label of the previously approved product should be modified to reflect the combination status. [After 21 CFR 3.2 (e) FAQ] See also combination product, single-entity product, co-packaged product.",
                    "preferredTerm": "Cross-labeled Product",
                    "submissionValue": "cross-labeled product"
                },
                {
                    "conceptId": "C53310",
                    "definition": "A study that measures the prevalence of health outcomes or determinants of health, or both, in a population at a point in time or over a short period. [After British Medical Journal, Epidemiology for the uninitiated, Chapter 8, Fifth Edition, BMJ Book 2004] See also observational study.",
                    "preferredTerm": "Cross-Sectional Study",
                    "submissionValue": "cross-sectional study"
                },
                {
                    "conceptId": "C82637",
                    "definition": "A trial design in which subjects function as their own control and are assigned to receive an investigational product(s) and control(s) in an order determined by randomization, with or without a washout period between the interventions. [After ICH E9]",
                    "preferredTerm": "Crossover Study",
                    "submissionValue": "crossover trial"
                },
                {
                    "conceptId": "C49704",
                    "definition": "Standard terminology developed and maintained by the National Cancer Institute to report adverse events occurring in cancer clinical trials. The CTCAE contains a grading scale for each adverse event term representing the severity of the event. NOTE: CTCAE is often used in study adverse event summaries and Investigational New Drug (IND) reports to the Food and Drug Administration. [After NCI]",
                    "preferredTerm": "Common Terminology Criteria for Adverse Events",
                    "submissionValue": "CTCAE (Common Terminology Criterion for Adverse Events)"
                },
                {
                    "conceptId": "C70818",
                    "definition": "A code used in the Enterprise Vocabulary System (EVS) to link a particular concept across one or more terms.",
                    "preferredTerm": "Concept Unique Identifier",
                    "submissionValue": "CUI (common unique identifier)"
                },
                {
                    "conceptId": "C54631",
                    "definition": "Document that outlines a person's educational and professional history.",
                    "preferredTerm": "Curriculum Vitae",
                    "submissionValue": "curriculum vitae (CV)"
                },
                {
                    "conceptId": "C142469",
                    "definition": "Capture of data into a structured, computerized format without a human-to-computer interface (i.e., from another measuring instrument or computerized source). Contrast with data entry, electronic data capture.",
                    "preferredTerm": "Data Acquisition",
                    "submissionValue": "data acquisition"
                },
                {
                    "conceptId": "C142470",
                    "definition": "The process of collecting and recording measures and assessments for a specific purpose. NOTE: Data are said to be captured when they are extracted as permanent records for use in a new context or created as a source document in that context. An example would be data that are manually copied or otherwise extracted from an EHR that are then transferred into a clinical trial database to be used for a clinical trial. [After Working with Data, Australian National Data Service, Accessed 4 Sept 2020; AFter FDA Guidance on Use of Electronic Health Record Data in Clinical Investigations Guidance for Industry, July 2018] See also data entry, EDC (electronic data capture).",
                    "preferredTerm": "Data Capture",
                    "submissionValue": "data capture"
                },
                {
                    "conceptId": "C208446",
                    "definition": "A form used to query an investigator and collect feedback to resolve questions regarding data.",
                    "preferredTerm": "Data Clarification Form",
                    "submissionValue": "data clarification form"
                },
                {
                    "conceptId": "C142471",
                    "definition": "Answer supplied by the investigator in response to a query. NOTE: The investigator may supply a new data point value to replace the initial value or a confirmation of the queried data point.",
                    "preferredTerm": "Data Clarification",
                    "submissionValue": "data clarification"
                },
                {
                    "conceptId": "C142472",
                    "definition": "Documents or tools which are used to collect, record or transcribe information on substantially identical items from a group of respondents. NOTE: Instruments can be either electronic or paper based tests, questionnaires, inventories, interview schedules or guides, rating scales, and survey plans or any other forms. [After 45 CFR 63.32]",
                    "preferredTerm": "Data Collection Instrument",
                    "submissionValue": "data collection instruments"
                },
                {
                    "conceptId": "C103159",
                    "definition": "In the context of clinical research, accessing and recording information that provides source data for analysis and interpretation See data entry and data capture. [CDISC]",
                    "preferredTerm": "Data Collection",
                    "submissionValue": "data collection"
                },
                {
                    "conceptId": "C142474",
                    "definition": "An identifier that may include information such as the origin of the data element, the date and time of entry, or the identification number of the study subject to whom the data element applies. NOTE: Data element identifiers should be attached to each data element as it is entered or transmitted by the originator into the eCRF. [After body and glossary of FDA Final Guidance eSource]",
                    "preferredTerm": "Data Element Identifier",
                    "submissionValue": "data element identifier"
                },
                {
                    "conceptId": "C41002",
                    "definition": "Smallest unit of information in a transaction. [From body and glossary of FDA Final Guidance on eSource] See also eXtensible markup language (XML) data element, common data element, clinical study data element.",
                    "preferredTerm": "Data Element",
                    "submissionValue": "data element"
                },
                {
                    "conceptId": "C142475",
                    "definition": "A FIPS approved cryptographic algorithm for encrypting (enciphering) and decrypting (deciphering) binary coded information. Encrypting data converts it to an unintelligible form called cipher. Decrypting cipher converts the data back to its original form called plaintext. NOTE: Data that are considered sensitive by the responsible authority or data that represent a high value should be cryptographically protected if vulnerable to unauthorized disclosure or undetected modification during transmission or while in storage. [After Federal Information Processing Standards (FIPS) Publication 46-2]",
                    "preferredTerm": "Data Encryption Standard",
                    "submissionValue": "data encryption standard (DES)"
                },
                {
                    "conceptId": "C142379",
                    "definition": "Human input of data into a structured, computerized format using an interface such as a keyboard, pen-based tablet, or voice recognition. Contrast with data acquisition, electronic data capture, direct entry. See also data collection, data capture.",
                    "preferredTerm": "Data Entry",
                    "submissionValue": "data entry"
                },
                {
                    "conceptId": "C142477",
                    "definition": "Process of manually supervised verification of data for internal consistency.",
                    "preferredTerm": "Data Integrity Verification",
                    "submissionValue": "data integrity verification"
                },
                {
                    "conceptId": "C142476",
                    "definition": "A condition of data reflecting the degree to which the data are complete, consistent, accurate, trustworthy, and reliable at any given time as well as consistently so maintained throughout the data life cycle. NOTE: The data should be collected and maintained in a secure manner, so that they are Attributable, Legible, Contemporaneously recorded, Original (or a true copy) and Accurate (ALCOA). Assuring data integrity requires appropriate quality and risk management systems, including adherence to sound scientific principles and good documentation practices. [After ICH E6; After MHRA GXP Data Integrity Guidance and Defintions, Revision 1, March 2018; After 21 CFR Part 11] See also ALCOA, ALCOA+, ALCOA++, traceability (data), data quality, electronic data transfer.",
                    "preferredTerm": "Data Integrity",
                    "submissionValue": "data integrity"
                },
                {
                    "conceptId": "C142478",
                    "definition": "Transfer of information between two or more parties, which maintains the integrity of the contents of the data for the purpose intended. See also interoperability.",
                    "preferredTerm": "Data Interchange",
                    "submissionValue": "data interchange"
                },
                {
                    "conceptId": "C142479",
                    "definition": "A named component of a data element. Usually the smallest component [ANSI]. See also data model, data element.",
                    "preferredTerm": "Data Item",
                    "submissionValue": "data item"
                },
                {
                    "conceptId": "C142483",
                    "definition": "Set of observations organized by domain.",
                    "preferredTerm": "Data Listing",
                    "submissionValue": "data listing"
                },
                {
                    "conceptId": "C142484",
                    "definition": "Procedures and policies for data management (e.g., documented procedure(s) for resolving self-evident changes). [ICH E6] See self-evident change.",
                    "preferredTerm": "Data Management Convention",
                    "submissionValue": "data management conventions"
                },
                {
                    "conceptId": "C18086",
                    "definition": "Tasks associated with the entry, transfer, and/or preparation of source data and derived items for entry into a clinical trial database. NOTE: Data management could include database creation, data entry, review, coding, data editing, data QC, locking, or archiving; it typically does not include source data capture.",
                    "preferredTerm": "Data Management",
                    "submissionValue": "data management"
                },
                {
                    "conceptId": "C142487",
                    "definition": "Unambiguous, formally stated, expression of items, the relationship among items, and the structure of the data in a certain problem area or context of use. A data model uses symbolic conventions agreed to represent content so that content does not lose its intended meaning when communicated.",
                    "preferredTerm": "Data Model",
                    "submissionValue": "data model"
                },
                {
                    "conceptId": "C142489",
                    "definition": "A group of independent experts who are appointed to monitor the safety and scientific integrity of a research intervention, protect the confidentiality of participant data, and to make recommendations to the sponsor regarding the stopping of the trial for safety, efficacy, or for futility. [After clinicaltrials.gov; Committee for Medicinal Products for Human Use (CHMP), 2005, EMA; FDA Establishment and Operation of Clinical Trial Data Monitoring Committees. March 2006]",
                    "preferredTerm": "Data Monitoring Committee",
                    "submissionValue": "data monitoring committee (DMC)",
                    "synonyms":
                    [
                        "Data and Safety Monitoring Board",
                        "DSMB"
                    ]
                },
                {
                    "conceptId": "C142488",
                    "definition": "Process by which clinical data are examined for completeness, consistency, and accuracy for the duration of the study lifecycle. NOTE: Monitoring is undertaken by qualified study personnel following a specific process and auditable methods. See also ALCOA+",
                    "preferredTerm": "Data Monitoring",
                    "submissionValue": "data monitoring"
                },
                {
                    "conceptId": "C16493",
                    "definition": "Source of information collected in the course of a clinical trial, specifically used to differentiate between data as collected versus data that are derived or calculated. NOTE: In CDISC, a metadata attribute defined for each dataset variable in the Define.xml document of an SDTM submission that refers to the source of a variable (e.g., CRF, derived, sponsor defined, PRO, etc.). See also data element originator.",
                    "preferredTerm": "Data Source",
                    "submissionValue": "data origin"
                },
                {
                    "conceptId": "C142490",
                    "definition": "Metadata characterizing the entity creating a data element in an eCRF for a clinical investigation. NOTE: Per FDA Final Guidance on eSource, \"Each data element is associated with an origination type that identifies the source of its capture in the eCRF. This could be a person, a computer system, a device, or an instrument that is authorized to enter, change, or transmit data elements into the eCRF (also sometimes known as an author).\" See also data element, data element originator, origin. [CDISC, Note is from FDA Final Guidance on eSource]",
                    "preferredTerm": "Data Originator",
                    "submissionValue": "data originator"
                },
                {
                    "conceptId": "C142491",
                    "definition": "A dimension of data contributing its trustworthiness and pertaining to accuracy, sensitivity, validity, and suitability to purpose. NOTE: Key elements of data quality include attribution, legibility (decipherable, unambiguous), contemporaneousness, originality (i.e., not duplicated), accuracy (ALCOA), precision, completeness, consistency (logical, not out of range), and those who have modified the data. Scientists may reasonably trust data that are accurate (high quality) that have also been reviewed by investigators and protected from unauthorized alteration (high integrity). [After ICH E6; After MHRA GXP Data Integrity Guidance and Defintions, Revision 1, March 2018; After 21 CFR Part 11] See also ALCOA, ALCOA+, ALCOA++, traceability (data), data integrity, electronic data transfer.",
                    "preferredTerm": "Data Quality",
                    "submissionValue": "data quality"
                },
                {
                    "conceptId": "C142492",
                    "definition": "Degree to which data are protected from the risk of accidental or malicious alteration or destruction and from unauthorized access or disclosure. [FDA]",
                    "preferredTerm": "Data Security",
                    "submissionValue": "data security"
                },
                {
                    "conceptId": "C142493",
                    "definition": "The rules by which particular data are selected and/ or transferred between the point of care and the patient record; subsequently, from the patient record to the database; and from database to inclusion in sub-population analyses.",
                    "preferredTerm": "Data Selection Criteria",
                    "submissionValue": "data selection criteria"
                },
                {
                    "conceptId": "C191275",
                    "definition": "Providing clinical trial data or access to data and final results to key stakeholders with the goal of increasing scientific knowledge and ultimately better therapies for patients. NOTE: guiding principles for data sharing: (1) maximize the benefits of clinical trials while minimizing the risks or harm of sharing clinical trial data, (2) respect individual participants whose data are shared, (3) increase public trust in clinical trials and the sharing of trial data, and (4) conduct the sharing of clinical trial data in a fair manner. [After National Academies of Sciences, Institute of Medicine. Sharing Clinical Trial Data: Maximizing Benefits, Minimizing Risk. Washington, DC: National Academies Press, 2015, accessed 2022-09-07]",
                    "preferredTerm": "Clinical Data Sharing",
                    "submissionValue": "data sharing"
                },
                {
                    "conceptId": "C103180",
                    "definition": "Defined rules, conventions, guidelines, characteristics, methods, formats, and terminologies that provide structure and consistency for exchange and utilization of data. NOTE: Data standards may describe the elements and relationships necessary to achieve the unambiguous exchange of data between disparate information systems. [After https://www.fda.gov/media/124694/download Standards Development and the Use of Standards in Regulatory Submissions Reviewed in the Center for Biologics Evaluation and Research Guidance for Industry MARCH2019, NCI Thesaurus]. See also interoperability, standard, CDISC standards, Study Data Standardization Plan, and Standards Development Organization.",
                    "preferredTerm": "Data Standard",
                    "submissionValue": "data standards"
                },
                {
                    "conceptId": "C142494",
                    "definition": "To maintain data by placing the data, or a copy of the data, onto an electronically accessible device for preservation (either in plain-text or encrypted format). [HL7 eHR-s FM Glossary of Terms, 2010].",
                    "preferredTerm": "Data Storage",
                    "submissionValue": "data storage"
                },
                {
                    "conceptId": "C142495",
                    "definition": "In the context of privacy guidelines, An individual who is the subject of personal data, persons to whom data refers, and from whom data are collected, processed, and stored. [after ISO/TS 2537:2008; and EU GDPR] See also study participant, participant.",
                    "preferredTerm": "Data Subject",
                    "submissionValue": "data subject"
                },
                {
                    "conceptId": "C43582",
                    "definition": "Algorithmic operations on data or data sets to achieve a meaningful set of derived data for analysis. [ADaM] See also derived variable.",
                    "preferredTerm": "Data Transformation",
                    "submissionValue": "data transformations"
                },
                {
                    "conceptId": "C42645",
                    "definition": "Data types define the structural format of the data carried in the attribute and influence the set of allowable values an attribute may assume. [HL7]",
                    "preferredTerm": "Data Type",
                    "submissionValue": "data type"
                },
                {
                    "conceptId": "C142500",
                    "definition": "Process used to determine whether data are accurate, authentic, complete, and/or compliant with applicable standards, rules, and conventions. NOTE: The process may include format checks, completeness checks, check key tests, reasonableness checks, and limit checks. [After FDA.; ISO] See also data integrity, validation.",
                    "preferredTerm": "Data Validation",
                    "submissionValue": "data validation"
                },
                {
                    "conceptId": "C25474",
                    "definition": "Representations of facts, concepts, or instructions in a manner suitable for communication, interpretation, or processing by humans or by automated means. [FDA]",
                    "preferredTerm": "Data",
                    "submissionValue": "data"
                },
                {
                    "conceptId": "C142503",
                    "definition": "Action taken to prevent further changes to a clinical trial database or any equivalent clinical data storage system. NOTE: Locking of a database is done after review, query resolution, and a determination has been made that the database is ready for analysis.",
                    "preferredTerm": "Database Lock",
                    "submissionValue": "database lock"
                },
                {
                    "conceptId": "C15426",
                    "definition": "A collection of data or information, typically organized for ease and speed of search and retrieval.",
                    "preferredTerm": "Database",
                    "submissionValue": "database"
                },
                {
                    "conceptId": "C47824",
                    "definition": "A collection of structured data in a single file. [CDISC] Compare to analysis dataset, tabulation dataset.",
                    "preferredTerm": "Data Set",
                    "submissionValue": "dataset"
                },
                {
                    "conceptId": "C139171",
                    "definition": "Date or date and time of first subject enrollment into a study, as verifiable by a convention that is consistent with authoritative regulatory criteria. [Modified from ICH E3] Compare to study start date.",
                    "preferredTerm": "Date of First Enrollment into Study",
                    "submissionValue": "date of first enrollment"
                },
                {
                    "conceptId": "C45970",
                    "definition": "The process of removing potentially identifying data or data elements to render data into a form that does not identify individuals and where identification is not likely to take place. NOTE: A general term for a process of removing the association between a set of identifying data and the data subject. Examples of potentially identifying data include name, birth date, social security number, home address, telephone number, e-mail address, medical record numbers, health plan beneficiary numbers, full-face photographic images). [After ISO/TS 25237: 2008 - Health Informatics - Pseudonymization; HIPAA: 45 CFR, 164.514] See also anonymization.",
                    "preferredTerm": "Deidentification",
                    "submissionValue": "de-identification"
                },
                {
                    "conceptId": "C142507",
                    "definition": "Records that have had enough personally identifiable information removed or obscured such that the remaining information does not identify an individual, and there is no reasonable basis to believe that the information can be used to identify an individual. [Guide to Protecting Personally Identifiable Information (PII): Special Publication NIST pubs/800-122]",
                    "preferredTerm": "De-identified Information",
                    "submissionValue": "de-identified information"
                },
                {
                    "conceptId": "C176257",
                    "definition": "A trial in which data capture, administration of medication, and possibly other procedures are done at the subject's location, e.g., at home or by telemedicine, mobile technology, and local HCPs (like family physicians, general practitioners). NOTE: The procedures (entry of data, medical tests, clinical evaluations, objective measures, observations) for capturing safety and efficacy measurements and observations may be done in-person by a traveling clinician or nurse so DCTs are not necessarily virtual. The responsibility for preparation, maintenance and retention of source records may be allocated to a centralized investigator or sponsor investigator. [After CTTI Recommendations: Decentralized Clinical Trials, September 2018] See also remote clinical trial, virtual, visit.",
                    "preferredTerm": "Decentralized Clinical Trial",
                    "submissionValue": "decentralized clinical trial (DCT)"
                },
                {
                    "conceptId": "C142504",
                    "definition": "Succinct statement of how a decision will be reached based upon the expected foreseen clinical benefits in terms of outcomes of the primary endpoint. [FDA documentation]",
                    "preferredTerm": "Decision Rule",
                    "submissionValue": "decision rule"
                },
                {
                    "conceptId": "C142505",
                    "definition": "A set of recommendations or basic principles that guide medical doctors in the conduct of biomedical research involving human subjects. it was originally adopted by the 18th World Medical assembly (Helsinki, Finland, 1964) and recently revised (64th WMA General Assembly, Fortaleza, Brazil, October 2013).",
                    "preferredTerm": "Declaration of Helsinki",
                    "submissionValue": "Declaration of Helsinki"
                },
                {
                    "conceptId": "C176258",
                    "definition": "A subset of machine learning that is part of the broader family of machine learning methodologies based on artificial neural networks. A deep neural network has multiple layers between input and output layers to progressively extract higher level features from the raw input. [After DeepAI Machine Learning Glossary and Terms] See also machine learning, artificial intelligence (AI).",
                    "preferredTerm": "Deep Learning",
                    "submissionValue": "deep learning"
                },
                {
                    "conceptId": "C142506",
                    "definition": "A table in XML that transmits metadata that describes any tabular dataset structure. NOTE: When used with the CDISC content standards, it provides the metadata for human and animal model tabular datasets such as SDTM, SEND, and ADaM. [After CDISC.org] See also eXtensible markup language (XML) data element, XML (eXtensible Markup Language).",
                    "preferredTerm": "Define.xml",
                    "submissionValue": "Define-XML"
                },
                {
                    "conceptId": "C142508",
                    "definition": "Characteristics of subjects or study populations, which include such information as age, sex, family history of the disease or condition for which they are being treated, and other characteristics relevant to the study in which they are participating.",
                    "preferredTerm": "Demographic Data",
                    "submissionValue": "demographic data"
                },
                {
                    "conceptId": "C142509",
                    "definition": "A variable that is expected to change as a result of an experiment. Dependent variables are influenced by independent variables. [After AMA Manual of Style] See also independent variable.",
                    "preferredTerm": "Dependent Variable",
                    "submissionValue": "dependent variable"
                },
                {
                    "conceptId": "C142538",
                    "definition": "Readying an electronic clinical trial system for field use by providing or disseminating capture devices, tokens, or passwords for users of an activated system. See activation.",
                    "preferredTerm": "Electronic System Deployment",
                    "submissionValue": "deployment"
                },
                {
                    "conceptId": "C142510",
                    "definition": "New variable created as a function of existing variables and/or application of mathematical functions. See also variable, raw data.",
                    "preferredTerm": "Derived Variable",
                    "submissionValue": "derived variable"
                },
                {
                    "conceptId": "C142442",
                    "definition": "Clinical trial design developed to compare treatment groups in a clinical trial. NOTE: The configuration usually requires randomization to one or more treatment arms, each arm being allocated a different (or no) treatment. examples include: Parallel Group Design, Crossover Design, Factorial Designs. [After ICH E9]",
                    "preferredTerm": "Clinical Trial Design Configuration",
                    "submissionValue": "design configuration"
                },
                {
                    "conceptId": "C142443",
                    "definition": "An ordered program of clinical trials, each with specific objectives. [adapted from ICH E9, see ICH E8]. See also clinical development plan.",
                    "preferredTerm": "Clinical Trial Development Plan",
                    "submissionValue": "development plan"
                },
                {
                    "conceptId": "C15220",
                    "definition": "A process to identify the disease, condition, or injury that explains the symptoms and signs occurring in a patient. NOTE: The information required for diagnosis is collected from a history and physical examination of the patient and preferably confirmed by one or more diagnostic procedures such as laboratory tests, radiologic studies and other technical investigations. [After \\\"Making a diagnosis\\\", John P. Langlois, Chapter 10 in Fundamentals of clinical practice (2002). Mark B. Mengel, Warren Lee Holleman, Scott A. Fields. 2nd edition.] See also treatment, intervention, disease, sign, symptom.",
                    "preferredTerm": "Diagnosis",
                    "submissionValue": "diagnose"
                },
                {
                    "conceptId": "C209427",
                    "definition": "A class of medical devices intended to provide evidence for diagnosis. [After Regulation (EU) 2017/745; After US FDA, Referencing the Definition of \"Device\" in the Federal Food, Drug, and Cosmetic Act in Guidance, Regulatory Documents, Communications, and Other Public Documents, Nov 14, 2022] See also medical device, investigational device, in vitro diagnostic device.",
                    "preferredTerm": "Diagnostic Device",
                    "submissionValue": "diagnostic device",
                    "synonyms":
                    [
                        "Diagnostic Medical Device"
                    ]
                },
                {
                    "conceptId": "C156648",
                    "definition": "The sponsor's first authorization to conduct a clinical trial in any country worldwide. NOTE: Used to start the annual period for the Development Safety Update Report (DSUR). [After CIOMS VII; ICH E2F]",
                    "preferredTerm": "Development International Birth Date",
                    "submissionValue": "DIBD (development international birth date)"
                },
                {
                    "conceptId": "C80447",
                    "definition": "An electronic signature, based on cryptographic methods of originator authentication, computed by using a set of rules and a set of parameters, such that the identity of the signer and the integrity of the data can be verified. [21 CFR 11]",
                    "preferredTerm": "Digital Signature",
                    "submissionValue": "digital signature"
                },
                {
                    "conceptId": "C142511",
                    "definition": "Permission to examine, analyze, verify, and reproduce any records and reports that are important to evaluation of a clinical trial. NOTE: The party (e.g., domestic and foreign regulatory authorities, sponsor's monitors and auditors) with direct access should take all reasonable precautions within the constraints of the applicable regulatory requirement(s) to maintain the confidentiality of subjects' identities and sponsor's proprietary information. [ICH E6 Glossary]",
                    "preferredTerm": "Direct Access",
                    "submissionValue": "direct access"
                },
                {
                    "conceptId": "C142512",
                    "definition": "Recording of data by human or automated action where an electronic record is the original means of capturing the data into an electronic records system without a paper source document. Examples are an individual keying original observations into a system or the automatic recording into the system of the output from measuring devices such as a balance that measures subject's body weight or an ECG machine. Compare to data entry, data acquisition.",
                    "preferredTerm": "Direct Data Entry",
                    "submissionValue": "direct entry"
                },
                {
                    "conceptId": "C142513",
                    "definition": "A piece of data that can be used to uniquely identify an individual (e.g., name, patient ID, social security number, exact address, telephone number, e-mail address, government issued identifiers, passport/VISA numbers) either without additional information or with cross-linking through other information that is in the public domain. [After PhUSE De-identification Standard for SDTM 3.2, version 1.0.1.]",
                    "preferredTerm": "Direct Identifier",
                    "submissionValue": "direct identifier"
                },
                {
                    "conceptId": "C142444",
                    "definition": "The act of concluding participation by an enrolled subject prior to completion of all protocol-required elements in a study. NOTE: Four categories of discontinuation are distinguished: a) dropout: Active discontinuation by a subject (also a noun referring to such a discontinued subject); b) investigator initiated discontinuation (e.g., for cause); c) loss to follow-up: cessation of participation without notice or action by the subject; d) sponsor initiated discontinuation. Note that subject discontinuation does not necessarily imply exclusion of subject data from analysis. \"Termination of subject\" has a history of synonymous use, but is now considered nonstandard. [After ICH E3, section 10.1 and FDA Guidance for Industry: Submission of Abbreviated Reports & Synopses in Support of Marketing Applications, IV A] See also withdrawal.",
                    "preferredTerm": "Study Subject Discontinuation",
                    "submissionValue": "discontinuation"
                },
                {
                    "conceptId": "C142473",
                    "definition": "The failure of a data point to pass a validation check. NOTE: Discrepancies may be detected by computerized edit checks or observed/ identified by the data reviewer as a result of manual data review. See also query.",
                    "preferredTerm": "Data Discrepancy",
                    "submissionValue": "discrepancy"
                },
                {
                    "conceptId": "C2991",
                    "definition": "Any abnormal condition of the body or mind that causes discomfort, dysfunction, or distress to the affected person. NOTE: The term is often used broadly to include injuries, disabilities, syndromes, symptoms, deviant behaviors, and atypical variations of structure and function. [After NCI Thesaurus] See also diagnosis.",
                    "preferredTerm": "Disease or Disorder",
                    "submissionValue": "disease"
                },
                {
                    "conceptId": "C17751",
                    "definition": "The length of time after treatment for a specific disease during which a patient survives with no sign of recurrence of the disease. [NCI]",
                    "preferredTerm": "Disease-Free Survival",
                    "submissionValue": "disease-free survival"
                },
                {
                    "conceptId": "C142571",
                    "definition": "An ordered presentation of XML elements, possibly including text and tabular analyses, description, and figures. Descriptors for HL7 documents include type, class, and element. NOTE: In HL7, a document can be either physical (referring to the paper) or logical (referring to the content) with the following characteristics: 1) Stewardship; 2) Potential for authentication; 3) Wholeness; 4) Human readability; 5) Persistence; 6) Global vs. local context.",
                    "preferredTerm": "HL7 Document",
                    "submissionValue": "document (HL7)"
                },
                {
                    "conceptId": "C142751",
                    "definition": "The element in an XML document that contains all other elements; the first element in the document. [SPL Glossary]",
                    "preferredTerm": "XML Document Root",
                    "submissionValue": "document root"
                },
                {
                    "conceptId": "C142515",
                    "definition": "XML specification for content and presentation of data and text in a document including definitions for the elements considered to be legal in the document. NOTE: Agreeing on a common DTD facilitates interoperability among systems incorporating the agreed standards. [From Electronic Submission File Formats and Specifications. Orientation and Best Practices For Data Formats and Submission to The Center For Tobacco Products. January 2018; Providing Regulatory Submissions in Electronic Format - Certain Human Pharmaceutical Product Applications and Related Submissions Using the eCTD Specifications Guidance for Industry. January 2019]",
                    "preferredTerm": "Document Type Definition",
                    "submissionValue": "document type definition (DTD)"
                },
                {
                    "conceptId": "C19498",
                    "definition": "All records, in any form (including but not limited to written, electronic, magnetic, and optical records, and scans, x-rays, and electrocardiograms) that describe or record the methods, conduct, and/or results of a trial, the factors affecting a trial, and the actions taken. [ICH E6 Glossary]",
                    "preferredTerm": "Document",
                    "submissionValue": "documentation"
                },
                {
                    "conceptId": "C54076",
                    "definition": "The way a particular web server is identified on the internet. For example, www.fda.gov names the World Wide Web (www) server for the Food and Drug administration, which is a government (.gov) entity. [Center for advancement of Clinical Research]",
                    "preferredTerm": "Domain Name",
                    "submissionValue": "domain name"
                },
                {
                    "conceptId": "C62289",
                    "definition": "A collection of logically related observations with a common, specific topic that are normally collected for all subjects in a clinical investigation. NOTE: The logic of the relationship may pertain to the scientific subject matter of the data or to its role in the trial. Example domains include laboratory test results (LB), adverse events (AE), concomitant medications (CM). [After SDTM Implementation Guide version 3.2, CDISC.org] See also general observation class.",
                    "preferredTerm": "Domain",
                    "submissionValue": "domain"
                },
                {
                    "conceptId": "C42636",
                    "definition": "Physical characteristics of a drug product, (e.g., tablet, capsule, or solution) that contains a drug substance, generally, but not necessarily, in association with one or more other ingredients. [After 21 CFR 314.3; After IDMP] See also drug product.",
                    "preferredTerm": "Pharmaceutical Dosage Form",
                    "submissionValue": "dosage form",
                    "synonyms":
                    [
                        "dose form",
                        "pharmaceutical form"
                    ]
                },
                {
                    "conceptId": "C142516",
                    "definition": "The schedule of doses of an agent per unit of time, including the number of doses per given time period and the elapsed time between doses. NOTE: For example, every six hours or the time that the doses are to be given (for example, at 8 a.m. and 4 p.m. daily); and/or the amount of a medicine (the number of capsules, for example) to be given at each specific dosing time. [After AMA Manual of Style]",
                    "preferredTerm": "Dosage Regimen",
                    "submissionValue": "dosage regimen"
                },
                {
                    "conceptId": "C94394",
                    "definition": "The amount of drug administered to a patient or test subject over a period of time; a regulated time bound administration of individual doses. NOTE: For example, a daily dosage specified in a prescription or a clinical trial, such as one 100mg tablet taken 4 times per day. [After AMA Manual of style]",
                    "preferredTerm": "Cumulative Dose",
                    "submissionValue": "dosage"
                },
                {
                    "conceptId": "C142517",
                    "definition": "The strength of a drug product, which indicates the amount of each active ingredient in a single dose. For liquids, it is the proportion of each active substance to the volume of a liquid dosage form. [After FDA Glossary of Terms]",
                    "preferredTerm": "Dose Strength",
                    "submissionValue": "dose strength"
                },
                {
                    "conceptId": "C25488",
                    "definition": "Specified quantity of a medicine, to be taken at one time or at stated intervals. [ISO 11615:2012 Health Informatics]",
                    "preferredTerm": "Dose",
                    "submissionValue": "dose"
                },
                {
                    "conceptId": "C90475",
                    "definition": "A study in which the dosage of the test article is increased until the desired physiological effect or toxicity is seen. (CDISC; After ICH E4)",
                    "preferredTerm": "Titration Study",
                    "submissionValue": "dose-escalation trial"
                },
                {
                    "conceptId": "C15228",
                    "definition": "A study in which neither the subject nor the investigator nor the research team interacting with the subject or data during the trial knows the treatment a subject is receiving. [After FDA Glossary of Terms]",
                    "preferredTerm": "Double Blind Study",
                    "submissionValue": "double-blind study"
                },
                {
                    "conceptId": "C142518",
                    "definition": "A technique for retaining the blind when administering supplies in a clinical trial, when the two treatments cannot be made identical. supplies are prepared for Treatment a (active and indistinguishable placebo) and for Treatment B (active and indistinguishable placebo). subjects then take two sets of treatment; either a (active) and B (placebo), or a (placebo) and B (active). [ICH E9]",
                    "preferredTerm": "Double-Dummy",
                    "submissionValue": "double-dummy"
                },
                {
                    "conceptId": "C142445",
                    "definition": "A subject in a clinical trial who for any reason fails to continue in the trial until the last visit or observation required of him/her by the study protocol. [from ICH E9]",
                    "preferredTerm": "Clinical Trial Dropout",
                    "submissionValue": "dropout"
                },
                {
                    "conceptId": "C142519",
                    "definition": "The program for advancing an investigational product from preclinical studies through approval for marketing following review by regulatory agencies.",
                    "preferredTerm": "Drug Development Process",
                    "submissionValue": "drug development process"
                },
                {
                    "conceptId": "C79370",
                    "definition": "In pharmacokinetics, the processes that control transfer of a drug from the site of measurement to its target and other tissues. See also ADME.",
                    "preferredTerm": "Pharmacokinetics: Distribution",
                    "submissionValue": "drug distribution"
                },
                {
                    "conceptId": "C54708",
                    "definition": "Changes in a drug's effects due to recent or concurrent use of another drug or drugs (drug-drug interactions), ingestion of food (drug-nutrient interactions), or ingestion of dietary supplements (dietary supplement-drug interactions). [MSD Manual Professional Version. Drug Interactions. By Shalini S. Lynch , PharmD, University of California San Francisco School of Pharmacy. Reviewed/Revised Jul 2022 | Modified Sep 2022. Merck & Co, Inc., Rahway, NJ, USA] See also additive effect, synergistic effect, antagonistic effect.",
                    "preferredTerm": "Drug Interaction",
                    "submissionValue": "drug interaction"
                },
                {
                    "conceptId": "C459",
                    "definition": "A finished dosage form, for example, tablet, capsule, solution, etc., that contains an active drug ingredient generally, but not necessarily, in association with inactive ingredients. The term also includes a finished dosage form that does not contain an active ingredient but is intended to be used as a placebo. [21CFR210.3] See also medicinal product, dosage form.",
                    "preferredTerm": "Medication",
                    "submissionValue": "drug product"
                },
                {
                    "conceptId": "C1909",
                    "definition": "An active natural, synthetic or semi-synthetic ingredient including endogenous body substance that is intended to furnish pharmacological activity or other direct effect in the diagnosis, cure, mitigation, treatment, or prevention of disease or to affect the structure or any function of the human body, but does not include intermediates used in the synthesis of such ingredient [21 CFR 314.3(b)]. See also medicinal product, active substance.",
                    "preferredTerm": "Pharmacologic Substance",
                    "submissionValue": "drug"
                },
                {
                    "conceptId": "C142520",
                    "definition": "Collective term for a combination of tags and options, style sheets, and programming that allows users to create web pages in hypertext Mark-up language (HTML) that are more responsive to user interaction than previous versions of HTML.",
                    "preferredTerm": "Dynamic Hypertext Markup Language",
                    "submissionValue": "dynamic HTML"
                },
                {
                    "conceptId": "C54721",
                    "definition": "Originally described as an exploratory study with no safety or efficacy targets. It is not cited in current FDA guidance and no longer in common usage. See also phase.",
                    "preferredTerm": "Phase 0 Trial",
                    "submissionValue": "Early Phase I"
                },
                {
                    "conceptId": "C184387",
                    "definition": "The premature end of a clinical trial due to any reason before the conditions specified in the protocol are complied with. [REGULATION (EU) No 536/2014 OF THE EUROPEAN PARLIAMENT AND OF THE COUNCIL of 16 April 2014 on clinical trials on medicinal products for human use, and repealing Directive 2001/20/EC; ICH E6] See also termination (of a clinical trial).",
                    "preferredTerm": "Early Termination of Trial",
                    "submissionValue": "early termination of trial",
                    "synonyms":
                    [
                        "premature termination of trial"
                    ]
                },
                {
                    "conceptId": "C142525",
                    "definition": "A copy of an electronic record that is created through the application of a process validated to preserve the data and metadata of the original and where the validation of the process is certified by the dated signature of an authorized person. [CDISC, after EMA/INS/GCP/454280/2010 GCP Inspectors Working Group (GCP IWG) June 2010]",
                    "preferredTerm": "Electronic Certified Copy",
                    "submissionValue": "eCertified copy"
                },
                {
                    "conceptId": "C142526",
                    "definition": "Clinical trial in which primarily electronic processes are used to plan, collect (acquire), access, exchange, and archive data required for conduct, management, analysis, and reporting of the trial. NOTE: FDA has recently drawn a distinction between studies and trials. Both words refer to systematic efforts to obtain evidence relevant to regulatory authorities, but, depending on regulatory context and particularly in the case of postmarketing commitments, a study might not be the appropriate word for a clinical trial (prospective, controlled, randomized), but should be reserved instead for surveillance, structured gathering of information, epidemiological studies, or even animal studies [Guidance for industry Postmarketing studies and Clinical Trials-implementation of section 505(o) of the Federal Food, Drug, and Cosmetic act]. See also clinical study, clinical trial.",
                    "preferredTerm": "Electronic Clinical Trial",
                    "submissionValue": "eClinical trial",
                    "synonyms":
                    [
                        "eClinical investigation",
                        "eClinical study"
                    ]
                },
                {
                    "conceptId": "C203920",
                    "definition": "An electronic document explaining all the relevant information to assist an individual in understanding the expectations and risks in making a decision about a procedure. This document is presented to and signed by the individual or guardian. [NCI]",
                    "preferredTerm": "Electronic Consent Form",
                    "submissionValue": "eConsent form",
                    "synonyms":
                    [
                        "Electronic Consent Form"
                    ]
                },
                {
                    "conceptId": "C142523",
                    "definition": "An auditable electronic record of information that is reported to the sponsor (or sponsor's agent such as an EDC provider) on each trial subject to enable data pertaining to a clinical investigation protocol to be systematically captured, reviewed, managed, stored, analyzed, and reported. The eCRF is a CRF in which related data items and their associated comments, notes, and signatures are linked programmatically. See also case report form, CRF, eSRF.[CSUICI; Revised from FDA Final Guidance on eSource]",
                    "preferredTerm": "Electronic Case Report Form",
                    "submissionValue": "eCRF (electronic case report form)"
                },
                {
                    "conceptId": "C142524",
                    "definition": "Case report tabulation (CRT) provided in electronic format for eSubmissions (electronic regulatory submissions). NOTE: according to FDA guidance, eCRTs are datasets provided as SAS Transport files with accompanying documentation in electronic submissions. They enable reviewers to analyze each dataset for each study. Each CRF domain should be provided as a single dataset; however, additional datasets suitable for reproducing and confirming analyses may also be needed. SDTM is the preferred format.",
                    "preferredTerm": "Electronic Case Report Tabulation",
                    "submissionValue": "eCRT (electronic case report tabulation)"
                },
                {
                    "conceptId": "C142527",
                    "definition": "The process of collecting clinical trial data into a permanent electronic form. NOTE: Permanent in the context of these definitions implies that any changes made to the electronic data are recorded with an audit trail. EDC usually denotes manual entry of CRF data by transcription from source documents. The transcription is typically done by personnel at investigative sites. [After Guidance for Industry, Use of Electronic Health Record Data in Clinical Investigations, July 2018] See also data entry, direct data entry, data acquisition, data capture.",
                    "preferredTerm": "Electronic Data Capture",
                    "submissionValue": "EDC (electronic data capture)"
                },
                {
                    "conceptId": "C142521",
                    "definition": "An auditable process, usually automated, of assessing the content of a data field against its expected logical, format, range, or other properties that is intended to reduce error. NOTE: Time-of-entry edit checks are a type of edit check that is run (executed) at the time data are first captured or transcribed to an electronic device at the time entry is completed of each field or group of fields on a form. Back-end edit checks are a type that is run against data that has been entered or captured electronically and has also been received by a centralized data store.",
                    "preferredTerm": "Edit Check",
                    "submissionValue": "edit check"
                },
                {
                    "conceptId": "C156649",
                    "definition": "The electronic document room is an extension of the e-Submissions central document room. A check is performed on each submission sent to the EDR for file formats used and the integrity of bookmarks and hypertext links.",
                    "preferredTerm": "Electronic Document Room",
                    "submissionValue": "EDR (electronic document room)"
                },
                {
                    "conceptId": "C209463",
                    "definition": "A measure or estimate of the observed or expected change in an outcome as a result of an intervention. [After AMA Manual of Style]",
                    "preferredTerm": "Effect Size Measurement",
                    "submissionValue": "effect size"
                },
                {
                    "conceptId": "C142522",
                    "definition": "A measure of intended effect on the disease or condition based on regulatory determination made on the basis of clinical efficacy and other substantial evidence, including real-world observations. [After Providing Clinical Evidence of Effectiveness for Human Drug and Biological Products. FDA GUIDANCE DOCUMENT. MAY 1998. After Demonstrating Substantial Evidence of Effectiveness for Human Drug and Biological Products. FDA Guidance for Industry (DRAFT GUIDANCE). December 2019] See also efficacy.",
                    "preferredTerm": "Effectiveness",
                    "submissionValue": "effectiveness"
                },
                {
                    "conceptId": "C88183",
                    "definition": "A measure of intended effect on the disease or condition based on adequate and well-controlled clinical trials. [After Providing Clinical Evidence of Effectiveness for Human Drug and Biological Products. FDA GUIDANCE DOCUMENT. MAY 1998. After Demonstrating Substantial Evidence of Effectiveness for Human Drug and Biological Products. FDA Guidance for Industry (DRAFT GUIDANCE). December 2019] See also effectiveness.",
                    "preferredTerm": "Efficacy",
                    "submissionValue": "efficacy"
                },
                {
                    "conceptId": "C142529",
                    "definition": "An electronic record for healthcare providers to create, import, store, and use clinical information for patient care, according to nationally recognized interoperability standards. NOTE: The EHR has the following distinguishing features: able to be obtained from multiple sources; shareable; interoperable; accessible to authorized parties. [After National Office of Health Information Technology-HIT, USHHS]",
                    "preferredTerm": "Electronic Health Record",
                    "submissionValue": "EHR (electronic health record)"
                },
                {
                    "conceptId": "C209464",
                    "definition": "The exchange of data across computer systems and networks, taking into account all required quality aspects such as security, data privacy, data quality, data integrity, and audit trail. [After FDA 21 CFR Part 11; After Guideline on computerized systems and electronic data in clinical trials (europa.eu) EMA/INS/GCP/112288/2023] See also data security, data quality, data integrity, data entry, ALCOA++.",
                    "preferredTerm": "Electronic Data Transfer",
                    "submissionValue": "electronic data transfer"
                },
                {
                    "conceptId": "C142530",
                    "definition": "An electronic record for individuals to create, import, store, and use clinical information to support their own health.",
                    "preferredTerm": "Electronic Personal Health Record",
                    "submissionValue": "electronic personal health record (ePHR)"
                },
                {
                    "conceptId": "C142531",
                    "definition": "Any combination of text, graphics, data, audio, pictorial, or other information representation in digital form that is created, modified, maintained, archived, retrieved, or distributed by a computer system. [21 CFR 11.3(b) (6)]",
                    "preferredTerm": "Electronic Record",
                    "submissionValue": "electronic record"
                },
                {
                    "conceptId": "C142533",
                    "definition": "A computer data compilation of any symbol or series of symbols, executed, adopted, or authorized by an individual to be the legally binding equivalent of the individual's handwritten signature. [CSUICI; 21 CFR 11.3(7)]",
                    "preferredTerm": "Electronic Signature",
                    "submissionValue": "electronic signature",
                    "synonyms":
                    [
                        "eSignature"
                    ]
                },
                {
                    "conceptId": "C16112",
                    "definition": "Requirements that must be met for a person to be included in a study, which help make sure that the results of the study are caused by the intervention being tested and not by other factors. NOTE: Eligibility Criteria, including inclusion and exclusion criteria, should enable constitution of the targeted cohorts in the clinical study. [After NCI's Dictionary of Cancer Terms]",
                    "preferredTerm": "Clinical Trial Eligibility Criteria",
                    "submissionValue": "eligibility criteria"
                },
                {
                    "conceptId": "C96966",
                    "definition": "Approval by FDA for the emergency use of certain unapproved medical products or an unapproved use of an approved medical product for certain emergency circumstances, when applied for under a declared health emergency. These medical products may be referred to as medical countermeasures (MCMs) and may include drugs, biologics, and devices. [After Emergency Use Authorization of Medical Products and Related Authorities. FDA Guidance for Industry and Other Stakeholders. January 2017.] See also pre-approval access.",
                    "preferredTerm": "Emergency Use Authorization",
                    "submissionValue": "emergency use authorization",
                    "synonyms":
                    [
                        "EUA"
                    ]
                },
                {
                    "conceptId": "C45259",
                    "definition": "An electronic record for healthcare providers within one healthcare organization to create, store, and use clinical information for patient care. An electronic record derived from a computerized system used primarily for delivering patient care in a clinical setting. NOTE: EMRs (or EHRs) may serve as source documents, and such data could serve also as source data for clinical trials provided that the controls on the EMR system and the transfer of such data to the eClinical trial system were to fulfill regulatory requirements (e.g., 21 CFR 11). [After Guidance for Industry, Use of Electronic Health Record Data in Clinical Investigations, July 2018]",
                    "preferredTerm": "Electronic Medical Record",
                    "submissionValue": "EMR (electronic medical record)"
                },
                {
                    "conceptId": "C165826",
                    "definition": "Medicinal products given to the subject as an aid to assess a relevant clinical trial end-point; it is not being tested or used as a reference in the clinical trial. [After Recommendations from the expert group on clinical trials for the implementation of Regulation (EU) No 536/2014' dd 28 June 2017]",
                    "preferredTerm": "End-point Assessment Medicinal Product",
                    "submissionValue": "end-point assessment medicinal product"
                },
                {
                    "conceptId": "C171503",
                    "definition": "The constant presence of a disease or infectious agent within a given geographic area or population group; may also refer to the usual prevalence of a given disease within such area or group. [A dictionary of epidemiology, edited for the International Epidemiological Association by John M. Last, Oxford University Press 2001]",
                    "preferredTerm": "Endemic Disorder",
                    "submissionValue": "endemic disease"
                },
                {
                    "conceptId": "C25212",
                    "definition": "A defined variable intended to reflect an outcome of interest to address a particular research question. NOTE: A precise definition of an endpoint typically specifies the type of assessments made, the timing of those assessments, the assessment tools used, and possibly other details, as applicable, such as how multiple assessments within an individual are to be combined. Primary endpoints are usually statistically analyzed. [After BEST Resource] See also outcome, variable, surrogate endpoint.",
                    "preferredTerm": "End Point",
                    "submissionValue": "endpoint"
                },
                {
                    "conceptId": "C142715",
                    "definition": "Status assigned to a subject who agrees to participate in a study, following completion of the informed consent process and meeting eligibility criteria as specified in the protocol. NOTE: Enrollment routinely requires verification of eligibility and inclusion in the analysis database. A less common definition confers enrolled status at the signing of an informed consent form, e.g., Clinicaltrials.gov. See also informed consent, enrollment.",
                    "preferredTerm": "Study Subject Enrolled",
                    "submissionValue": "enrolled"
                },
                {
                    "conceptId": "C142466",
                    "definition": "Current enrollment including any subjects who were once enrolled and have ended participation.",
                    "preferredTerm": "Cumulative Enrollment",
                    "submissionValue": "enrollment (cumulative)"
                },
                {
                    "conceptId": "C142467",
                    "definition": "Subjects actively continuing to participate in a clinical trial as of the current date.",
                    "preferredTerm": "Current Enrollment",
                    "submissionValue": "enrollment (current)"
                },
                {
                    "conceptId": "C37948",
                    "definition": "The action of enrolling one or more subjects. NOTE: The subject will have met the inclusion/exclusion criteria to participate in the trial and will have signed an informed consent form. [After Glossary Of Terms On Clinical Trials For Patient Engagement Advisory Committee Meeting] See also enrolled.",
                    "preferredTerm": "Enrollment",
                    "submissionValue": "enrollment"
                },
                {
                    "conceptId": "C171452",
                    "definition": "The occurrence in a community or region of cases of an illness, specific health-related behavior, or other health-related events clearly in excess of normal expectancy. NOTE: The community or region and the period in which the cases occur are specified precisely. The number of cases indicating the presence of an epidemic varies according to the agent, size, and type of population exposed; previous experience or lack of exposure to the disease; and time and place of occurrence. [After A dictionary of epidemiology, edited for the International Epidemiological Association by John M. Last, OXFORD UNIVERSITY PRESS 2001]",
                    "preferredTerm": "Epidemic Disorder",
                    "submissionValue": "epidemic"
                },
                {
                    "conceptId": "C71738",
                    "definition": "Planned interval of time in the conduct of a study wherein an activity is specified and consistent, e.g., specific treatment dose or study activity such as Screening. NOTE: A CDISC variable used in the SDTM model to indicate a time period defined in the protocol with a study-specific purpose. See also arm, visit, phase (within a study).",
                    "preferredTerm": "Clinical Trial Epoch",
                    "submissionValue": "epoch"
                },
                {
                    "conceptId": "C137811",
                    "definition": "Patient reported outcome data initially captured electronically. NOTE: Usually ePRO data is captured as eSource. [DIA ePRO Working Group]. See also patient reported outcome, PRO, eSource.",
                    "preferredTerm": "Electronic Patient-reported Outcome System",
                    "submissionValue": "ePRO"
                },
                {
                    "conceptId": "C142428",
                    "definition": "A state in which an investigator is uncertain about which arm of a clinical trial would be therapeutically superior for a patient. NOTE: An investigator who has a treatment preference or finds out that one arm of a comparative trial offers a clinically therapeutic advantage should disclose this information to subjects participating in the trial.",
                    "preferredTerm": "Clinical Equipoise",
                    "submissionValue": "equipoise"
                },
                {
                    "conceptId": "C142539",
                    "definition": "A trial with the primary objective of showing that the response to two or more treatments differs by an amount that is clinically unimportant. NOTE: This is usually demonstrated by showing that the true treatment difference is likely to lie between a lower and an upper equivalence margin of clinically acceptable differences.",
                    "preferredTerm": "Equivalence Trial",
                    "submissionValue": "equivalence trial"
                },
                {
                    "conceptId": "C203921",
                    "definition": "An effect of two or more bioactive compounds or drugs that is deemed to be equal, and can be expected to have the same clinical effect and safety profile. [After US FDA, Evaluation of Therapeutic Equivalence, Draft Guidance for Industry, July 2022]",
                    "preferredTerm": "Equivalent Effect",
                    "submissionValue": "equivalent effect"
                },
                {
                    "conceptId": "C142534",
                    "definition": "Source data captured initially into a permanent electronic record (eSource document) used for the reconstruction and evaluation of a clinical study or a source data item included in an eCRF when direct entry is made. NOTE: permanent in the context of these definitions implies that any changes made to the electronic data are recorded via an audit trail. See also eSource document, source data, permanent data, data originator. [From body of FDA Final Guidance on eSource]",
                    "preferredTerm": "Electronic Source Data",
                    "submissionValue": "eSource data"
                },
                {
                    "conceptId": "C142535",
                    "definition": "Electronic record containing source data for a clinical trial, used to aggregate a particular instance of eSource data items for capture, transmission, storage, and/ or display, and serving as a source document for a clinical investigation. NOTE: Electronic Source documents are recorded in electronic systems according to conventions (such as those for PDF documents) that ensure that all the fields of eSource data and associated contextual information (e.g. time of capture, time zone, authorship, origin, signatures, revisions, etc.) are linked to each other in a particular structure for presentation. The encoded specifications in the electronic record thus serve the same role as have the physical properties of paper (binding data items together). eSource documents are subject to regulations and guidance that apply to source documents. See also source documents. [relevant to FDA Final Guidance on eSource]",
                    "preferredTerm": "Electronic Source Document",
                    "submissionValue": "eSource document"
                },
                {
                    "conceptId": "C142536",
                    "definition": "Source record that is electronic. See also source, electronic record.",
                    "preferredTerm": "Electronic Source Record",
                    "submissionValue": "eSource"
                },
                {
                    "conceptId": "C142537",
                    "definition": "The human-readable rendering of an electronic record serving as an eSource document that is part of a case history. The eSRF supports capture, transmission, storage, editing and/ or display of eSource documents (original records and certified copies of original records of clinical findings, observations, or other activities in a clinical investigation) used for reconstructing and evaluating the investigation. NOTE: Intended use distinguishes eCRF and eSRF. The eCRF is for capture, review and editing of protocol data belonging to the sponsor; the eSRF is for the human-readable representation of the eSource document for review or to maintain the eSource document that is part of the case history under 21CFR312.62. See also eCRF, eSource document. [CDISC, relevant to FDA Final Guidance on eSource]",
                    "preferredTerm": "Electronic Source Report Form",
                    "submissionValue": "eSRF (electronic source report form)"
                },
                {
                    "conceptId": "C142540",
                    "definition": "Documents that individually and collectively permit evaluation of the conduct of a study and the quality of the data produced. [ICH E6 Glossary]",
                    "preferredTerm": "Essential Trial Document",
                    "submissionValue": "essential documents"
                },
                {
                    "conceptId": "C97104",
                    "definition": "The official name of a drug or pharmaceutical product, relevant in US regulations. [US FDA, 21 CFR 299.4] See also proprietary name, generic name, international nonproprietary name (INN), medicinal product name, compendial name.",
                    "preferredTerm": "Established Drug Name",
                    "submissionValue": "established name"
                },
                {
                    "conceptId": "C188813",
                    "definition": "A precise description of the treatment effect reflecting the clinical question posed by a given clinical trial objective. It summarizes at a population level what the outcomes would be in the same patients under different treatment conditions being compared. NOTE: The four characteristics of an estimand include the definition of the target study population, statement of the endpoint of interest, intercurrent event details, and the population level summary of the variable of interest. (ICH E9 R1 Addendum; After Estimand Framework: What it is and Why You Need it. Applied Clinical Trials. February 27, 2020]",
                    "preferredTerm": "Estimand",
                    "submissionValue": "estimand"
                },
                {
                    "conceptId": "C142541",
                    "definition": "Group convened to protect research subjects. NOTE: Such bodies, depending on the country or region, are abbreviated as: CCI, CCPPRB, CHR, CPPHS, CRB, EAB, HEX, HSRC, LREC, MREC, NIRB, NRB, and REB. See also institutional review board, independent ethics committee.",
                    "preferredTerm": "Ethics Committee",
                    "submissionValue": "ethics committee"
                },
                {
                    "conceptId": "C16564",
                    "definition": "Denotes social groups with a shared history, sense of identity, geography, and cultural roots.",
                    "preferredTerm": "Ethnic Group",
                    "submissionValue": "ethnicity"
                },
                {
                    "conceptId": "C142543",
                    "definition": "The regulatory agency for the EU.",
                    "preferredTerm": "European Medicines Agency",
                    "submissionValue": "European Medicines Agency (EMA)"
                },
                {
                    "conceptId": "C142546",
                    "definition": "Pertains to data or subjects that meet Statistical Analysis Plan criteria for inclusion in efficacy/safety datasets.",
                    "preferredTerm": "Evaluable for Safety and Efficacy",
                    "submissionValue": "evaluable (for efficacy and safety)"
                },
                {
                    "conceptId": "C74589",
                    "definition": "Planned protocol activities such as randomization and study completion, and occurrences, conditions, or incidents independent of planned study evaluations occurring during the trial (e.g., adverse events) or prior to the trial (e.g., medical history). [After SDTM, www.cdisc.org] See also general observation class, intervention, finding.",
                    "preferredTerm": "Protocol Event",
                    "submissionValue": "event"
                },
                {
                    "conceptId": "C25370",
                    "definition": "List of characteristics in a protocol, any one of which may exclude a potential subject from participation in a study.",
                    "preferredTerm": "Exclusion Criteria",
                    "submissionValue": "exclusion criteria"
                },
                {
                    "conceptId": "C94618",
                    "definition": "The act or process of eliminating waste products from the body. See also ADME.",
                    "preferredTerm": "Excretion",
                    "submissionValue": "excretion"
                },
                {
                    "conceptId": "C191276",
                    "definition": "A predominantly First-in-Human (FIH) trial with a single protocol with an initial dose-escalation phase followed by three or more additional subject cohorts with cohort-specific objectives. NOTE: The objectives of these expansion cohorts can include assessment of antitumor activity in a disease-specific setting, assessment of a dose with acceptable safety in specific populations (e.g., pediatric or elderly subjects, subjects with organ impairment, subjects with specific tumor types), evaluation of alternative doses or schedules, establishment of dose and schedule for the investigational drug administered with another oncology drug, or evaluation of the predictive value of a potential biomarker. In general, comparison of activity between cohorts is not planned except when a prespecified randomization and analysis plan are part of the protocol design. [FDA Guidance: Expansion Cohorts: Use in First-in-Human Clinical Trials to Expedite Development of Oncology Drugs and Biologics Guidance for Industry. March 2022]",
                    "preferredTerm": "Expansion Cohort Trial",
                    "submissionValue": "expansion cohort trial"
                },
                {
                    "conceptId": "C41161",
                    "definition": "The drug, device, therapy, procedure, or process under investigation in a clinical study that is believed to have an effect on outcomes of interest in a study (e.g., health-related quality of life, efficacy, safety, pharmacoeconomics). NOTE: This does not include comparators or placebos. [After https://grants.nih.gov/grants/policy/faq_clinical_trial_definition.htm#5224; https://grants.nih.gov/policy/clinical-trials/protocol-template.htm] See also test articles, devices, drug product, combination product, treatment, diagnosis, investigational medicinal product.",
                    "preferredTerm": "Protocol Agent",
                    "submissionValue": "experimental intervention",
                    "synonyms":
                    [
                        "Study Treatment",
                        "Target Product",
                        "Test Article"
                    ]
                },
                {
                    "conceptId": "C93388",
                    "definition": "A physical entity which is the primary interest in a specific research objective. NOTE: Depending on the research objectives, a single study may have multiple levels of experimental units. Commonly the individual study subject (animal, person or product) is the experimental unit. (BRIDG v5.3)",
                    "preferredTerm": "Experimental Unit",
                    "submissionValue": "experimental unit"
                },
                {
                    "conceptId": "C142547",
                    "definition": "A clinical study that is conducted early in Phase 1; involves very limited human exposure and has no therapeutic or diagnostic intent (e.g., screening studies, microdose studies) [FDA Guidance for industry, investigators, and Reviewers: exploratory IND studies, January 2006] See also Phase 0.",
                    "preferredTerm": "Exploratory Investigational New Drug Study",
                    "submissionValue": "exploratory IND study"
                },
                {
                    "conceptId": "C163559",
                    "definition": "Additional scientific question(s) within the study that enable further discovery research, beyond the primary and secondary objectives. See also objective, primary objective, secondary objective.",
                    "preferredTerm": "Trial Exploratory Objective",
                    "submissionValue": "exploratory objective"
                },
                {
                    "conceptId": "C39538",
                    "definition": "Phase 1 or 2 study during which the actions of a therapeutic intervention are assessed and measured. NOTE: Procedures in exploratory studies may appropriately be altered beyond the standard adequate and well controlled processes to expand the scope or method of investigation. [NOTE: After FDA eCOA Glossary] Compare to confirmatory study.",
                    "preferredTerm": "Therapeutic Exploratory Study",
                    "submissionValue": "exploratory study"
                },
                {
                    "conceptId": "C156623",
                    "definition": "The result of an intentional contact (e.g., intervention, dosage, drug/product use, misuse, or abuse) or an unintentional contact (circumstantial events leading to unknown, inadvertent, or accidental contact) resulting in inputs to the body of an individual which can occur directly through primary bodily contact routes or indirectly through secondary contact routes (such as via fluids as in fetal exposure during pregnancy or lactation/breast feeding or other biological transfers). [After FDA, Reviewer Guidance Evaluating the Risks of Drug Exposure in Human Pregnancies] See also exposure, intervention, extent of exposure.",
                    "preferredTerm": "Individual Exposure",
                    "submissionValue": "exposure (individual)"
                },
                {
                    "conceptId": "C17941",
                    "definition": "Contact between an agent and a target. A state of contact or close proximity to a medicinal product, chemical, pathogen, radioisotope or other substance. NOTE: Types of exposure may be described by many qualifiers (e.g., local, systemic, acute, chronic, cumulative, environmental, population, individual, gestational, or occupational.) See also exposure (individual), intervention, extent of exposure. [After International Programme on Chemical Safety (IPCS) 2004 WHO]",
                    "preferredTerm": "Exposure",
                    "submissionValue": "exposure"
                },
                {
                    "conceptId": "C142548",
                    "definition": "For XML, an item of data provided in a mark-up mode to allow machine processing. NOTE: The mark-up or tagging facilitates document indexing, search and retrieval, and provides standard conventions for insertion of codes. [After Study Data Technical Conformance Guide, Technical Specifications Document, March 2019] See also XML (eXtensible Markup Language), Define-XML.",
                    "preferredTerm": "Extensible Markup Language Data Element",
                    "submissionValue": "eXtensible markup language (XML) data element"
                },
                {
                    "conceptId": "C156624",
                    "definition": "A variable of exposure taking into consideration the strength, dose, duration, frequency, route, and/or timing or gestational stage in utero and other factors. NOTE: Measures of concentrations in biological fluids and tissues may be used to attempt to quantify the extent of exposures (e.g., Cmax, Cmin, Css, AUC in pharmacokinetics or other exposure measurement and assessment models). [After, FDA Guidance for Industry Exposure-Response Relationships] See also exposure, exposure (individual), intervention.",
                    "preferredTerm": "Extent of Exposure",
                    "submissionValue": "extent of exposure"
                },
                {
                    "conceptId": "C142549",
                    "definition": "A class of software applications for data extraction, transformation, and loading that are used to implement data interfaces between disparate database systems, often to populate data warehouses.",
                    "preferredTerm": "Extraction Transformation Load",
                    "submissionValue": "extraction transformation load (ETL)"
                },
                {
                    "conceptId": "C142557",
                    "definition": "A patient's physical sensation (e.g., symptoms) or perceived mental state. A patient may feel pain, feel feverish, or perceive a severely low mood (as with depression). [FDA Clinical Outcome Assessment (COA) Glossary]",
                    "preferredTerm": "Feels",
                    "submissionValue": "feels"
                },
                {
                    "conceptId": "C25507",
                    "definition": "Locus on a data collection instrument (usually a CRF) for recording or displaying a data element. See data item.",
                    "preferredTerm": "Data Field",
                    "submissionValue": "field"
                },
                {
                    "conceptId": "C100047",
                    "definition": "A standard protocol for exchanging files between computers on the internet. See also TCP/IP.",
                    "preferredTerm": "File Transfer Protocol",
                    "submissionValue": "File Transfer Protocol (FTP)"
                },
                {
                    "conceptId": "C115575",
                    "definition": "A written description of a trial/study of any therapeutic, prophylactic, or diagnostic agent conducted in human subjects, in which the clinical and statistical description, presentations, and analyses are fully integrated into a single report. [ICH E3]",
                    "preferredTerm": "Clinical Trial Final Report",
                    "submissionValue": "final report"
                },
                {
                    "conceptId": "C3367",
                    "definition": "A meaningful interpretation of data or observations resulting from planned evaluations. Compare to conclusion, hypothesis. See also general observation class, intervention, event.",
                    "preferredTerm": "Finding",
                    "submissionValue": "finding"
                },
                {
                    "conceptId": "C142558",
                    "definition": "The date and/or date and time the first subject is enrolled into a study. See also enrollment.",
                    "preferredTerm": "First Subject In Date Time",
                    "submissionValue": "first subject in - date, time (FSI - date, time)",
                    "synonyms":
                    [
                        "first patient in - date, time",
                        "FPI - date, time"
                    ]
                },
                {
                    "conceptId": "C142559",
                    "definition": "The first subject enrolled. See also enrollment.",
                    "preferredTerm": "First Subject In Identity",
                    "submissionValue": "first subject in - identity (FSI - identity)",
                    "synonyms":
                    [
                        "first patient in - identity",
                        "FPI - identity"
                    ]
                },
                {
                    "conceptId": "C142560",
                    "definition": "The date and/or date and time the first subject signs the informed consent form and is screened for potential enrollment or randomization into a study, but has not yet been determined to meet the inclusion/exclusion criteria for the trial.",
                    "preferredTerm": "First Subject Screened Date Time",
                    "submissionValue": "first subject screened - date, time",
                    "synonyms":
                    [
                        "first patient screened - date, time"
                    ]
                },
                {
                    "conceptId": "C142561",
                    "definition": "The first subject who is so screened.",
                    "preferredTerm": "First Subject Screened Identity",
                    "submissionValue": "first subject screened - identity",
                    "synonyms":
                    [
                        "first patient screened - identity"
                    ]
                },
                {
                    "conceptId": "C142562",
                    "definition": "The date and/or date and time when the first subject receives the test article or placebo in a clinical investigation.",
                    "preferredTerm": "First Subject Treated Date Time",
                    "submissionValue": "first subject treated - date, time",
                    "synonyms":
                    [
                        "first patient treated - date, time"
                    ]
                },
                {
                    "conceptId": "C142563",
                    "definition": "The first subject who is so treated.",
                    "preferredTerm": "First Subject Treated Identity",
                    "submissionValue": "first subject treated - identity",
                    "synonyms":
                    [
                        "first patient treated - identity"
                    ]
                },
                {
                    "conceptId": "C142564",
                    "definition": "The first Phase 1 study in which the test product is administered to human beings.",
                    "preferredTerm": "First-in-Human Study",
                    "submissionValue": "first-in-humans study",
                    "synonyms":
                    [
                        "first-in-man study"
                    ]
                },
                {
                    "conceptId": "C156841",
                    "definition": "A period in a clinical study during which selected observations are made, starting after the end of the active part of the study or as specified in the protocol.",
                    "preferredTerm": "Follow-Up Period",
                    "submissionValue": "follow-up (clinical study)"
                },
                {
                    "conceptId": "C17237",
                    "definition": "The United States regulatory authority charged with, among other responsibilities, granting IND and NDA approvals.",
                    "preferredTerm": "Food and Drug Administration",
                    "submissionValue": "Food and Drug Administration (FDA)"
                },
                {
                    "conceptId": "C19464",
                    "definition": "A collection of items and item groups for capturing and displaying clinical trial data.",
                    "preferredTerm": "Form",
                    "submissionValue": "Form"
                },
                {
                    "conceptId": "C142565",
                    "definition": "Statistical methods, such as significance tests and confidence intervals, which can be interpreted in terms of the frequency of certain outcomes occurring in hypothetical repeated realizations of the same experimental situation. [ICH E9]",
                    "preferredTerm": "Frequentist Method",
                    "submissionValue": "frequentist methods"
                },
                {
                    "conceptId": "C142502",
                    "definition": "Status of a database, file, or element that has been presumed to be in its final state pending \"lock\" and where further editing is prevented without \"unfreezing.\" NOTE: Freezing and unfreezing are usually formalized in audit trails and differ from \"locking\" and \"unlocking\" only in the degree of approval required. See database lock.",
                    "preferredTerm": "Database Frozen",
                    "submissionValue": "frozen"
                },
                {
                    "conceptId": "C142438",
                    "definition": "The function or responsibility assumed by a person in the context of a clinical study. Examples include data manager, investigator. [HL7]",
                    "preferredTerm": "Clinical Study Functional Role",
                    "submissionValue": "functional roles (in a study)"
                },
                {
                    "conceptId": "C142468",
                    "definition": "The manner in which a patient can perform successfully tasks and roles required for everyday living. A patient's ability to perform specified activities that are a meaningful (to the patient), part of typical (e.g., daily) life. [FDA Clinical Outcome Assessment (COA) Glossary]",
                    "preferredTerm": "Daily Living",
                    "submissionValue": "functions",
                    "synonyms":
                    [
                        "functioning"
                    ]
                },
                {
                    "conceptId": "C17357",
                    "definition": "Subject self-identification re: masculine/feminine. [IOM] See also sex.",
                    "preferredTerm": "Gender",
                    "submissionValue": "gender"
                },
                {
                    "conceptId": "C15238",
                    "definition": "Ex vivo or in vivo gene modification of cells in order to correct or treat an inherited or acquired disease or condition. NOTE: Gene therapy mechanisms can include: Replacing a disease-causing gene with a healthy copy of the gene; Inactivating a disease-causing gene that is not functioning properly; and Introducing a new or modified gene into the body to help treat a disease. [After Natalie Mount, et al. Cell-based therapy technology classifications and translational challenge. Philos Trans R Soc Lond B Biol Sci. 2015 Oct 19; 370(1680): 20150017; After What is Gene Therapy?, US FDA, 07/25/2018] See also cell therapy, regenerative medicine therapy, regenerative medicine advanced therapy, biological product.",
                    "preferredTerm": "Gene Therapy",
                    "submissionValue": "gene therapy"
                },
                {
                    "conceptId": "C165827",
                    "definition": "In the context of the Study Data Tabulation Model (SDTM), a higher level categorization of the subject-level observation domains. NOTE: Most CDISC domains are assigned to one of three general observation classes: 1) The Interventions general observation class is a domain that captures investigational treatments, therapeutic treatments, and surgical procedures that are intentionally administered to the subject (usually for therapeutic purposes) either as specified by the study protocol (e.g., exposure), coincident with the study assessment period (e.g., concomitant medications), or other substances self-administered by the subject (such as alcohol, tobacco, or caffeine). 2) The Events general observation class captures occurrences or incidents independent of planned study evaluations occurring during the trial (e.g., \"adverse events\" or \"disposition\") or prior to the trial (e.g., \"medical history\"). 3) The Findings general observation class captures the observations resulting from planned evaluations such as observations made during a physical examination, laboratory tests, ECG testing, and sets of individual questions listed on questionnaires. [Based on SDTM and SDTM Implementation Guide, www.CDISC.org] See also domain, event, intervention, finding. Compare with special purpose domain.",
                    "preferredTerm": "CDISC General Observation Class",
                    "submissionValue": "general observation class"
                },
                {
                    "conceptId": "C142429",
