{
    "_links":
    {
        "priorVersion":
        {
            "href": "/mdr/ct/packages/mrctct-2024-03-29",
            "title": "MRCT Controlled Terminology Package 57 Effective 2024-03-29",
            "type": "Terminology"
        },
        "self":
        {
            "href": "/mdr/ct/packages/mrctct-2024-09-27",
            "title": "MRCT Controlled Terminology Package 58 Effective 2024-09-27",
            "type": "Terminology"
        }
    },
    "codelists":
    [
        {
            "conceptId": "C203912",
            "definition": "The terminology relevant to the plain language glossary of the Multi-Regional Clinical Trial (MRCT) Center of Brigham and Women's Hospital and Harvard.",
            "name": "MRCT Center Clinical Research Glossary",
            "preferredTerm": "CDISC MRCT Center Clinical Research Glossary",
            "submissionValue": "MRCT Center Clinical Research Glossary",
            "synonyms":
            [
                "MRCT Center Clinical Research Glossary"
            ],
            "terms":
            [
                {
                    "conceptId": "C203914",
                    "definition": "The combined effect when two or more things are used together. (https://mrctcenter.org/glossaryterm/additive-effect/)",
                    "preferredTerm": "Additive Effect",
                    "submissionValue": "additive effect"
                },
                {
                    "conceptId": "C25729",
                    "definition": "Following the study directions and requirements. (https://mrctcenter.org/glossaryterm/adherence/)",
                    "preferredTerm": "Adherence",
                    "submissionValue": "adherence"
                },
                {
                    "conceptId": "C41331",
                    "definition": "Any health problem that happens during the study. (https://mrctcenter.org/glossaryterm/adverse-event/)",
                    "preferredTerm": "Adverse Event",
                    "submissionValue": "adverse event"
                },
                {
                    "conceptId": "C41332",
                    "definition": "A health problem that happens during the study and is reported as possibly caused by the study treatment. (https://mrctcenter.org/glossaryterm/adverse-reaction/)",
                    "preferredTerm": "Adverse Reaction",
                    "submissionValue": "adverse reaction"
                },
                {
                    "conceptId": "C142392",
                    "definition": "Remove, change, or hide personal details to protect participant privacy. (https://mrctcenter.org/glossaryterm/anonymize/)",
                    "preferredTerm": "Anonymization",
                    "submissionValue": "anonymize"
                },
                {
                    "conceptId": "C16295",
                    "definition": "A protein made by the body to fight an illness or infection. (https://mrctcenter.org/glossaryterm/antibody/)",
                    "preferredTerm": "Antibody",
                    "submissionValue": "antibody"
                },
                {
                    "conceptId": "C268",
                    "definition": "A substance that causes the body's immune system to react. (https://mrctcenter.org/glossaryterm/antigen/)",
                    "preferredTerm": "Antigen",
                    "submissionValue": "antigen"
                },
                {
                    "conceptId": "C15538",
                    "definition": "A group of participants in a research study who all receive the same study treatment. (https://mrctcenter.org/glossaryterm/arm/)",
                    "preferredTerm": "Protocol Treatment Arm",
                    "submissionValue": "arm"
                },
                {
                    "conceptId": "C203934",
                    "definition": "A document used to explain the details of a research study to children or people who are unable to give legal consent. (https://mrctcenter.org/glossaryterm/assent-form/)",
                    "preferredTerm": "Assent Form",
                    "submissionValue": "assent form"
                },
                {
                    "conceptId": "C161418",
                    "definition": "Willingness to take part in a research study by someone who is not able to give legal consent. (https://mrctcenter.org/glossaryterm/assent/)",
                    "preferredTerm": "Informed Assent",
                    "submissionValue": "assent"
                },
                {
                    "conceptId": "C25217",
                    "definition": "Information that is collected and analyzed from a study participant. (https://mrctcenter.org/glossaryterm/assessment/)",
                    "preferredTerm": "Assessment",
                    "submissionValue": "assessment"
                },
                {
                    "conceptId": "C142400",
                    "definition": "Information that is collected and analyzed from a study participant at the start of a study. (https://mrctcenter.org/glossaryterm/baseline-assessment/)",
                    "preferredTerm": "Baseline Assessment",
                    "submissionValue": "baseline assessment"
                },
                {
                    "conceptId": "C209461",
                    "definition": "A research study that tests one study treatment for different diseases and conditions. (https://mrctcenter.org/glossaryterm/basket-trial/)",
                    "preferredTerm": "Basket Trial",
                    "submissionValue": "basket trial"
                },
                {
                    "conceptId": "C203915",
                    "definition": "The ways a research study might help the participant and others. (https://mrctcenter.org/glossaryterm/benefits-of-a-research-study/)",
                    "preferredTerm": "Benefits of a Research Study",
                    "submissionValue": "benefits of a research study"
                },
                {
                    "conceptId": "C28232",
                    "definition": "Flaws in the way a study is designed, done, or analyzed that lead to one conclusion being favored over another. (https://mrctcenter.org/glossaryterm/research-bias/)",
                    "preferredTerm": "Bias",
                    "submissionValue": "bias (research)"
                },
                {
                    "conceptId": "C16342",
                    "definition": "Something in the body that is measured as an indicator of personal health or disease. (https://mrctcenter.org/glossaryterm/biomarker/)",
                    "preferredTerm": "Biomarker",
                    "submissionValue": "biomarker"
                },
                {
                    "conceptId": "C37932",
                    "definition": "A way to prevent pregnancy. (https://mrctcenter.org/glossaryterm/birth-control/)",
                    "preferredTerm": "Contraception",
                    "submissionValue": "birth control"
                },
                {
                    "conceptId": "C28221",
                    "definition": "Taking a sample of blood by using a needle. (https://mrctcenter.org/glossaryterm/blood-draw/)",
                    "preferredTerm": "Phlebotomy",
                    "submissionValue": "blood draw"
                },
                {
                    "conceptId": "C142422",
                    "definition": "A health change that researchers measure to show that the study treatment helps the study participants. (https://mrctcenter.org/glossaryterm/clinical-benefit/)",
                    "preferredTerm": "Clinical Benefit",
                    "submissionValue": "clinical benefit"
                },
                {
                    "conceptId": "C51811",
                    "definition": "A research staff member who helps manage studies. (https://mrctcenter.org/glossaryterm/clinical-research-coordinator-crc/)",
                    "preferredTerm": "Clinical Coordinator",
                    "submissionValue": "Clinical Research Coordinator (CRC)"
                },
                {
                    "conceptId": "C142435",
                    "definition": "A type of science that uses people's data to study health, illness, behaviors, or conditions in careful and defined ways. (https://mrctcenter.org/glossaryterm/clinical-research/)",
                    "preferredTerm": "Clinical Research and Development",
                    "submissionValue": "clinical research"
                },
                {
                    "conceptId": "C71104",
                    "definition": "A research study that tests drugs, devices and treatments to see if they are safe and work in people. (https://mrctcenter.org/glossaryterm/clinical-trial/)",
                    "preferredTerm": "Clinical Trial",
                    "submissionValue": "clinical trial"
                },
                {
                    "conceptId": "C85499",
                    "definition": "A health care provider. (https://mrctcenter.org/glossaryterm/clinician/)",
                    "preferredTerm": "Clinician",
                    "submissionValue": "clinician"
                },
                {
                    "conceptId": "C61512",
                    "definition": "A group of study participants that are similar in some way. (https://mrctcenter.org/glossaryterm/cohort/)",
                    "preferredTerm": "Cohort",
                    "submissionValue": "cohort"
                },
                {
                    "conceptId": "C203916",
                    "definition": "A study comparing two or more treatments. (https://mrctcenter.org/glossaryterm/comparative-effectiveness-research-cer/)",
                    "preferredTerm": "Comparative Effectiveness Research",
                    "submissionValue": "Comparative Effectiveness Research (CER)"
                },
                {
                    "conceptId": "C142458",
                    "definition": "Something that is compared to the study treatment. (https://mrctcenter.org/glossaryterm/comparator/)",
                    "preferredTerm": "Comparator",
                    "submissionValue": "comparator"
                },
                {
                    "conceptId": "C209471",
                    "definition": "Money and other forms of payment that may be given to participants for completing study activities. (https://mrctcenter.org/glossaryterm/compensation-study/)",
                    "preferredTerm": "Study Compensation",
                    "submissionValue": "compensation (study)"
                },
                {
                    "conceptId": "C39490",
                    "definition": "Following research requirements. (https://mrctcenter.org/glossaryterm/compliance/)",
                    "preferredTerm": "Patient Compliance",
                    "submissionValue": "compliance"
                },
                {
                    "conceptId": "C17204",
                    "definition": "A way to take pictures of the inside of a person's body using a type of radiation and a computer. (https://mrctcenter.org/glossaryterm/computerized-tomography-ct-scan/)",
                    "preferredTerm": "Computed Tomography",
                    "submissionValue": "Computerized Tomography (CT) scan"
                },
                {
                    "conceptId": "C70902",
                    "definition": "Non-study medicines that are allowed to be taken at the same time as the study treatment. (https://mrctcenter.org/glossaryterm/concomitant-medications/)",
                    "preferredTerm": "Concomitant Agent",
                    "submissionValue": "concomitant medications"
                },
                {
                    "conceptId": "C153144",
                    "definition": "To do a study or procedure. (https://mrctcenter.org/glossaryterm/conduct/)",
                    "preferredTerm": "Study Conduct",
                    "submissionValue": "conduct"
                },
                {
                    "conceptId": "C53324",
                    "definition": "The defined range of numbers used to describe where the results are expected to fall. (https://mrctcenter.org/glossaryterm/confidence-interval/)",
                    "preferredTerm": "Confidence Interval",
                    "submissionValue": "confidence interval"
                },
                {
                    "conceptId": "C16466",
                    "definition": "Protecting personal information from people who should not have access. (https://mrctcenter.org/glossaryterm/confidentiality/)",
                    "preferredTerm": "Confidentiality",
                    "submissionValue": "confidentiality"
                },
                {
                    "conceptId": "C209462",
                    "definition": "When the study outcome is influenced by outside conditions that were not expected by the study researchers. (https://mrctcenter.org/glossaryterm/confounding/)",
                    "preferredTerm": "Confounding Variable",
                    "submissionValue": "confounding"
                },
                {
                    "conceptId": "C16468",
                    "definition": "A document used to explain the planned research before a person decides whether or not to join a study. (https://mrctcenter.org/glossaryterm/consent-form/)",
                    "preferredTerm": "Consent Form",
                    "submissionValue": "consent form"
                },
                {
                    "conceptId": "C54148",
                    "definition": "A group that is paid by the study sponsor to support research studies. (https://mrctcenter.org/glossaryterm/contract-research-organization-cro/)",
                    "preferredTerm": "Contract Research Organization",
                    "submissionValue": "Contract Research Organization (CRO)"
                },
                {
                    "conceptId": "C28143",
                    "definition": "The people in a study who do not receive the study treatment or do not have the condition being studied. (https://mrctcenter.org/glossaryterm/control-group/)",
                    "preferredTerm": "Control Group",
                    "submissionValue": "control group"
                },
                {
                    "conceptId": "C48834",
                    "definition": "When two or more measures are linked. (https://mrctcenter.org/glossaryterm/correlation/)",
                    "preferredTerm": "Correlation",
                    "submissionValue": "correlation"
                },
                {
                    "conceptId": "C142489",
                    "definition": "An independent group of experts that reviews study data to make sure that patient safety is protected. (https://mrctcenter.org/glossaryterm/data-monitoring-committee-data-and-safety-monitoring)",
                    "preferredTerm": "Data Monitoring Committee",
                    "submissionValue": "Data Monitoring Committee/Data and Safety Monitoring Board (DMC/DSMB)"
                },
                {
                    "conceptId": "C25474",
                    "definition": "Information collected from or about people taking part in a research study. (https://mrctcenter.org/glossaryterm/data/)",
                    "preferredTerm": "Data",
                    "submissionValue": "data"
                },
                {
                    "conceptId": "C203935",
                    "definition": "Information that is collected and organized to be used for research. (https://mrctcenter.org/glossaryterm/database-research/)",
                    "preferredTerm": "Research Database",
                    "submissionValue": "database (research)"
                },
                {
                    "conceptId": "C142444",
                    "definition": "To remove a study participant from a study. (https://mrctcenter.org/glossaryterm/discontinue-participant/)",
                    "preferredTerm": "Study Subject Discontinuation",
                    "submissionValue": "discontinue (participant)"
                },
                {
                    "conceptId": "C49502",
                    "definition": "To stop a study treatment in a participant. (https://mrctcenter.org/glossaryterm/discontinue-study-treatment/)",
                    "preferredTerm": "Drug Withdrawn",
                    "submissionValue": "discontinue (study treatment)"
                },
                {
                    "conceptId": "C17747",
                    "definition": "An illness getting worse over time. (https://mrctcenter.org/glossaryterm/disease-progression/)",
                    "preferredTerm": "Disease Progression",
                    "submissionValue": "disease progression"
                },
                {
                    "conceptId": "C17751",
                    "definition": "The length of time after treatment that a person lives without the illness coming back. (https://mrctcenter.org/glossaryterm/disease-free-survival/)",
                    "preferredTerm": "Disease-Free Survival",
                    "submissionValue": "disease-free survival"
                },
                {
                    "conceptId": "C90475",
                    "definition": "A kind of study where increasing amounts of a study treatment are given to different groups to find the best dose. (https://mrctcenter.org/glossaryterm/dose-escalation-study/)",
                    "preferredTerm": "Titration Study",
                    "submissionValue": "dose escalation study"
                },
                {
                    "conceptId": "C15228",
                    "definition": "A study that is set up so that the study treatment that each participant receives is not known by the participants or the researchers. (https://mrctcenter.org/glossaryterm/double-blind-study/)",
                    "preferredTerm": "Double Blind Study",
                    "submissionValue": "double-blind study"
                },
                {
                    "conceptId": "C203919",
                    "definition": "A time period decided between the participant and study team when a medication is stopped and then re-started. (https://mrctcenter.org/glossaryterm/drug-holiday/)",
                    "preferredTerm": "Drug Holiday",
                    "submissionValue": "drug holiday"
                },
                {
                    "conceptId": "C15986",
                    "definition": "The use of medicine to treat a disease, condition, or symptom. (https://mrctcenter.org/glossaryterm/drug-therapy/)",
                    "preferredTerm": "Pharmacotherapy",
                    "submissionValue": "drug therapy"
                },
                {
                    "conceptId": "C203920",
                    "definition": "An electronic version of an informed consent form. (https://mrctcenter.org/glossaryterm/e-consent-form/)",
                    "preferredTerm": "Electronic Consent Form",
                    "submissionValue": "e-consent (form)"
                },
                {
                    "conceptId": "C142522",
                    "definition": "How well a treatment works. (https://mrctcenter.org/glossaryterm/effectiveness/)",
                    "preferredTerm": "Effectiveness",
                    "submissionValue": "effectiveness"
                },
                {
                    "conceptId": "C88183",
                    "definition": "How well a study treatment works in the study. (https://mrctcenter.org/glossaryterm/efficacy/)",
                    "preferredTerm": "Efficacy",
                    "submissionValue": "efficacy"
                },
                {
                    "conceptId": "C16112",
                    "definition": "The reasons a person can be included in, or excluded from, a study. (https://mrctcenter.org/glossaryterm/eligibility-criteria/)",
                    "preferredTerm": "Clinical Trial Eligibility Criteria",
                    "submissionValue": "eligibility criteria"
                },
                {
                    "conceptId": "C96966",
                    "definition": "A process to make a treatment or vaccine available during a public health emergency, before all research is complete, and before full approval is granted. (https://mrctcenter.org/glossaryterm/emergency-use-authorization-eua/)",
                    "preferredTerm": "Emergency Use Authorization",
                    "submissionValue": "Emergency Use Authorization (EUA)"
                },
                {
                    "conceptId": "C25212",
                    "definition": "A measure of the expected effect of the study treatment. (https://mrctcenter.org/glossaryterm/endpoint/)",
                    "preferredTerm": "End Point",
                    "submissionValue": "endpoint"
                },
                {
                    "conceptId": "C37948",
                    "definition": "The action of a participant joining the study after providing informed consent. (https://mrctcenter.org/glossaryterm/enroll/)",
                    "preferredTerm": "Enrollment",
                    "submissionValue": "enroll"
                },
                {
                    "conceptId": "C17843",
                    "definition": "A person who studies where, why, how often, and to what populations health concerns and diseases happen. (https://mrctcenter.org/glossaryterm/epidemiologist/)",
                    "preferredTerm": "Epidemiologist",
                    "submissionValue": "epidemiologist"
                },
                {
                    "conceptId": "C142539",
                    "definition": "When two or more things in a study are about the same. (https://mrctcenter.org/glossaryterm/equivalence/)",
                    "preferredTerm": "Equivalence Trial",
                    "submissionValue": "equivalence"
                },
                {
                    "conceptId": "C203921",
                    "definition": "The same or almost the same result. (https://mrctcenter.org/glossaryterm/equivalent-effect/)",
                    "preferredTerm": "Equivalent Effect",
                    "submissionValue": "equivalent (effect)"
                },
                {
                    "conceptId": "C25370",
                    "definition": "A list of reasons a person cannot be included in a study. (https://mrctcenter.org/glossaryterm/exclusion-criteria/)",
                    "preferredTerm": "Exclusion Criteria",
                    "submissionValue": "exclusion criteria"
                },
                {
                    "conceptId": "C98722",
                    "definition": "A process for a doctor to request an unapproved treatment for a seriously ill patient. (https://mrctcenter.org/glossaryterm/expanded-access/)",
                    "preferredTerm": "Expanded Access Study",
                    "submissionValue": "expanded access"
                },
                {
                    "conceptId": "C147146",
                    "definition": "A process to find facts that can guide the design of future studies. (https://mrctcenter.org/glossaryterm/exploratory-research/)",
                    "preferredTerm": "Exploratory Research",
                    "submissionValue": "exploratory research"
                },
                {
                    "conceptId": "C154589",
                    "definition": "A group interview to learn what people think about a topic. (https://mrctcenter.org/glossaryterm/focus-group/)",
                    "preferredTerm": "Focus Group",
                    "submissionValue": "focus group"
                },
                {
                    "conceptId": "C25515",
                    "definition": "How often something happens over a period of time. (https://mrctcenter.org/glossaryterm/frequency/)",
                    "preferredTerm": "Temporal Frequency",
                    "submissionValue": "frequency"
                },
                {
                    "conceptId": "C142429",
                    "definition": "How research results can apply to people who were not part of the study. (https://mrctcenter.org/glossaryterm/generalizability/)",
                    "preferredTerm": "Clinical Generalizability",
                    "submissionValue": "generalizability"
                },
                {
                    "conceptId": "C15709",
                    "definition": "A medical test that could identify a health risk to them or their biological family members by looking at their genes (DNA). (https://mrctcenter.org/glossaryterm/genetic-testing/)",
                    "preferredTerm": "Genetic Testing",
                    "submissionValue": "genetic testing"
                },
                {
                    "conceptId": "C93150",
                    "definition": "A measure of risk that compares two treatments in the same study. (https://mrctcenter.org/glossaryterm/hazard-ratio/)",
                    "preferredTerm": "Hazard Ratio",
                    "submissionValue": "hazard ratio"
                },
                {
                    "conceptId": "C49651",
                    "definition": "A study participant who does not have a disease or condition, including the one being studied. (https://mrctcenter.org/glossaryterm/healthy-volunteer/)",
                    "preferredTerm": "Healthy Subject",
                    "submissionValue": "healthy volunteer"
                },
                {
                    "conceptId": "C27998",
                    "definition": "A parent's features and traits being passed to their biological children before birth. (https://mrctcenter.org/glossaryterm/hereditary/)",
                    "preferredTerm": "Hereditary",
                    "submissionValue": "hereditary"
                },
                {
                    "conceptId": "C142668",
                    "definition": "An idea that is tested in a research study. (https://mrctcenter.org/glossaryterm/hypothesis/)",
                    "preferredTerm": "Research Hypothesis",
                    "submissionValue": "hypothesis"
                },
                {
                    "conceptId": "C17930",
                    "definition": "The body's reaction to a substance, illness, or infection. (https://mrctcenter.org/glossaryterm/immune-response/)",
                    "preferredTerm": "Immune Response Process",
                    "submissionValue": "immune response"
                },
                {
                    "conceptId": "C16726",
                    "definition": "Number of new cases or events during a period of time. (https://mrctcenter.org/glossaryterm/incidence/)",
                    "preferredTerm": "Incidence",
                    "submissionValue": "incidence"
                },
                {
                    "conceptId": "C25532",
                    "definition": "A list of requirements a person must meet to take part in a study. (https://mrctcenter.org/glossaryterm/inclusion-criteria/)",
                    "preferredTerm": "Inclusion Criteria",
                    "submissionValue": "inclusion criteria"
                },
                {
                    "conceptId": "C16735",
                    "definition": "The process of learning and discussing the details of a research study before deciding whether to take part. (https://mrctcenter.org/glossaryterm/informed-consent/)",
                    "preferredTerm": "Informed Consent",
                    "submissionValue": "informed consent"
                },
                {
                    "conceptId": "C15388",
                    "definition": "A way to give a fluid to the study participant, usually through a vein. (https://mrctcenter.org/glossaryterm/infusion/)",
                    "preferredTerm": "Infusion Procedure",
                    "submissionValue": "infusion"
                },
                {
                    "conceptId": "C16741",
                    "definition": "A team of people who review studies to protect the rights and welfare of study participants. (https://mrctcenter.org/glossaryterm/institutional-review-board-irb/)",
                    "preferredTerm": "Institutional Review Board",
                    "submissionValue": "Institutional Review Board (IRB)"
                },
                {
                    "conceptId": "C202579",
                    "definition": "A treatment or drug that is not yet approved for the condition being studied. (https://mrctcenter.org/glossaryterm/investigational-medicine/)",
                    "preferredTerm": "Investigational Medicinal Product",
                    "submissionValue": "investigational medicine"
                },
                {
                    "conceptId": "C96090",
                    "definition": "An application to the United States Food & Drug Administration (FDA) to get permission to use a drug in a research study that enrolls people. (https://mrctcenter.org/glossaryterm/investigational-new-drug-ind-application/)",
                    "preferredTerm": "Investigational New Drug Application",
                    "submissionValue": "Investigational New Drug (IND) application"
                },
                {
                    "conceptId": "C41161",
                    "definition": "A drug, device, vaccine or other treatment being tested in a study. (https://mrctcenter.org/glossaryterm/investigational-product/)",
                    "preferredTerm": "Protocol Agent",
                    "submissionValue": "investigational product"
                },
                {
                    "conceptId": "C25936",
                    "definition": "A person who leads a research study. (https://mrctcenter.org/glossaryterm/investigator/)",
                    "preferredTerm": "Investigator",
                    "submissionValue": "investigator"
                },
                {
                    "conceptId": "C15273",
                    "definition": "Research that collects data from the same participants over a long time. (https://mrctcenter.org/glossaryterm/longitudinal-study/)",
                    "preferredTerm": "Longitudinal Study",
                    "submissionValue": "longitudinal study"
                },
                {
                    "conceptId": "C16809",
                    "definition": "A way to take pictures of the inside of a person's body with a machine that uses strong magnets and radio waves. (https://mrctcenter.org/glossaryterm/magnetic-resonance-imaging-mri/)",
                    "preferredTerm": "Magnetic Resonance Imaging",
                    "submissionValue": "Magnetic Resonance Imaging (MRI)"
                },
                {
                    "conceptId": "C165770",
                    "definition": "An overall research plan that guides sub-studies that have their own research questions. (https://mrctcenter.org/glossaryterm/master-protocol/)",
                    "preferredTerm": "Master Protocol",
                    "submissionValue": "master protocol"
                },
                {
                    "conceptId": "C25564",
                    "definition": "The most or largest amount. (https://mrctcenter.org/glossaryterm/maximum/)",
                    "preferredTerm": "Maximum",
                    "submissionValue": "maximum"
                },
                {
                    "conceptId": "C53319",
                    "definition": "The average. (https://mrctcenter.org/glossaryterm/mean/)",
                    "preferredTerm": "Arithmetic Mean",
                    "submissionValue": "mean"
                },
                {
                    "conceptId": "C28007",
                    "definition": "The middle number in a set of numbers when listed in order from lowest to highest. (https://mrctcenter.org/glossaryterm/median/)",
                    "preferredTerm": "Median",
                    "submissionValue": "median"
                },
                {
                    "conceptId": "C25570",
                    "definition": "Very small. (https://mrctcenter.org/glossaryterm/minimal/)",
                    "preferredTerm": "Minimum",
                    "submissionValue": "minimal",
                    "synonyms":
                    [
                        "minimum"
                    ]
                },
                {
                    "conceptId": "C156663",
                    "definition": "Someone considered too young to give legal consent. (https://mrctcenter.org/glossaryterm/minor/)",
                    "preferredTerm": "Minor Person",
                    "submissionValue": "minor"
                },
                {
                    "conceptId": "C61256",
                    "definition": "To observe, check or evaluate something in a study over time. (https://mrctcenter.org/glossaryterm/monitor/)",
                    "preferredTerm": "Monitoring",
                    "submissionValue": "monitor"
                },
                {
                    "conceptId": "C184382",
                    "definition": "The number of people who develop a disease or illness in a group over time. (https://mrctcenter.org/glossaryterm/morbidity-rate/)",
                    "preferredTerm": "Morbidity Rate",
                    "submissionValue": "morbidity (rate)"
                },
                {
                    "conceptId": "C16880",
                    "definition": "The number of deaths in a group of people over time. (https://mrctcenter.org/glossaryterm/mortality-rate/)",
                    "preferredTerm": "Mortality Rate",
                    "submissionValue": "mortality (rate)"
                },
                {
                    "conceptId": "C16104",
                    "definition": "A study that takes place at more than one research center. (https://mrctcenter.org/glossaryterm/multicenter-trial/)",
                    "preferredTerm": "Multi-Institutional Clinical Trial",
                    "submissionValue": "multicenter trial"
                },
                {
                    "conceptId": "C35681",
                    "definition": "A test result that shows a person does not have what was tested for. (https://mrctcenter.org/glossaryterm/negative-test-result/)",
                    "preferredTerm": "Negative Test Result",
                    "submissionValue": "negative test result"
                },
                {
                    "conceptId": "C203922",
                    "definition": "So small that it has little to no impact. (https://mrctcenter.org/glossaryterm/negligible/)",
                    "preferredTerm": "Negligible",
                    "submissionValue": "negligible"
                },
                {
                    "conceptId": "C201294",
                    "definition": "Not following research requirements. (https://mrctcenter.org/glossaryterm/non-compliance/)",
                    "preferredTerm": "Subject Noncompliance",
                    "submissionValue": "non-compliance"
                },
                {
                    "conceptId": "C184386",
                    "definition": "A study to test if a study treatment works about as well as another treatment for the same condition. (https://mrctcenter.org/glossaryterm/non-inferiority-trial/)",
                    "preferredTerm": "Non-Inferiority Trial",
                    "submissionValue": "non-inferiority trial"
                },
                {
                    "conceptId": "C142450",
                    "definition": "A purpose or goal of a study. (https://mrctcenter.org/glossaryterm/objective/)",
                    "preferredTerm": "Clinical Trial Objective",
                    "submissionValue": "objective"
                },
                {
                    "conceptId": "C16084",
                    "definition": "A study that collects health information about study participants without giving a treatment. (https://mrctcenter.org/glossaryterm/observational-study/)",
                    "preferredTerm": "Observational Study",
                    "submissionValue": "observational study"
                },
                {
                    "conceptId": "C16932",
                    "definition": "The chance of a health event happening in one group compared with the chance of the same event happening in another group. (https://mrctcenter.org/glossaryterm/odds-ratio/)",
                    "preferredTerm": "Odds Ratio",
                    "submissionValue": "odds ratio"
                },
                {
                    "conceptId": "C125600",
                    "definition": "The use of a treatment in a different way or for a condition other than what it is approved for. (https://mrctcenter.org/glossaryterm/off-label/)",
                    "preferredTerm": "Off-Label Treatment",
                    "submissionValue": "off-label"
                },
                {
                    "conceptId": "C49659",
                    "definition": "A type of study where participants and research staff know which treatment participants are being given. (https://mrctcenter.org/glossaryterm/open-label/)",
                    "preferredTerm": "Open Label Study",
                    "submissionValue": "open-label"
                },
                {
                    "conceptId": "C204098",
                    "definition": "A description of the overall results of the study. (https://mrctcenter.org/glossaryterm/outcome-of-study/)",
                    "preferredTerm": "Study Outcome Description",
                    "submissionValue": "outcome (of study)"
                },
                {
                    "conceptId": "C93407",
                    "definition": "The way that a study endpoint is measured. (https://mrctcenter.org/glossaryterm/outcome-measure/)",
                    "preferredTerm": "Study Outcome Measurement",
                    "submissionValue": "outcome measure"
                },
                {
                    "conceptId": "C44185",
                    "definition": "A number that researchers use to show that a result did not occur by chance. (https://mrctcenter.org/glossaryterm/p-value-probability-value/)",
                    "preferredTerm": "P-Value",
                    "submissionValue": "p-value (probability value)"
                },
                {
                    "conceptId": "C95401",
                    "definition": "The information that patients share about their own health or well-being to answer questions in a study. (https://mrctcenter.org/glossaryterm/patient-reported-outcomes-pros/)",
                    "preferredTerm": "Patient Reported Outcome",
                    "submissionValue": "Patient Reported Outcomes (PROs)"
                },
                {
                    "conceptId": "C16963",
                    "definition": "Evaluation by independent experts. (https://mrctcenter.org/glossaryterm/peer-review/)",
                    "preferredTerm": "Peer Review",
                    "submissionValue": "peer review"
                },
                {
                    "conceptId": "C49662",
                    "definition": "A study that measures the effects of a drug on the human body. (https://mrctcenter.org/glossaryterm/pharmacodynamic-pd-study/)",
                    "preferredTerm": "Pharmacodynamic Study",
                    "submissionValue": "Pharmacodynamic (PD) study"
                },
                {
                    "conceptId": "C15299",
                    "definition": "A study that measures what happens to a drug in a person's body over time. (https://mrctcenter.org/glossaryterm/pharmacokinetic-pk-study/)",
                    "preferredTerm": "Pharmacokinetics",
                    "submissionValue": "Pharmacokinetic (PK) study"
                },
                {
                    "conceptId": "C142637",
                    "definition": "A process to detect, review, and make decisions about drug safety to protect patients. (https://mrctcenter.org/glossaryterm/pharmacovigilance/)",
                    "preferredTerm": "Pharmacovigilance",
                    "submissionValue": "pharmacovigilance"
                },
                {
                    "conceptId": "C48281",
                    "definition": "A step in the overall clinical research process to test a new drug, device, or treatment. (https://mrctcenter.org/glossaryterm/phase/)",
                    "preferredTerm": "Trial Phase",
                    "submissionValue": "phase"
                },
                {
                    "conceptId": "C15303",
                    "definition": "A small study that is done to test a process before starting a larger study. (https://mrctcenter.org/glossaryterm/pilot-study/)",
                    "preferredTerm": "Pilot Study",
                    "submissionValue": "pilot study"
                },
                {
                    "conceptId": "C753",
                    "definition": "Something that looks like the treatment being studied, but doesn't contain any medicine. (https://mrctcenter.org/glossaryterm/placebo/)",
                    "preferredTerm": "Placebo",
                    "submissionValue": "placebo"
                },
                {
                    "conceptId": "C203925",
                    "definition": "A study with two or more groups where one group is given a placebo. (https://mrctcenter.org/glossaryterm/placebo-controlled-study/)",
                    "preferredTerm": "Placebo-Controlled Study",
                    "submissionValue": "placebo-controlled study"
                },
                {
                    "conceptId": "C209468",
                    "definition": "A research study that tests and compares two or more study treatments for a disease or condition, with study treatment groups being added or removed during the study period. (https://mrctcenter.org/glossaryterm/platform-trial/)",
                    "preferredTerm": "Platform Trial",
                    "submissionValue": "platform trial"
                },
                {
                    "conceptId": "C38758",
                    "definition": "A test result that shows a person has what was tested for. (https://mrctcenter.org/glossaryterm/positive-test-result/)",
                    "preferredTerm": "Positive Finding",
                    "submissionValue": "positive test result"
                },
                {
                    "conceptId": "C142640",
                    "definition": "Continuing to collect and analyze information about the risks and benefits of medicine and devices after they have been approved for patient use. (https://mrctcenter.org/glossaryterm/post-market-surveillance/)",
                    "preferredTerm": "Postmarketing Surveillance",
                    "submissionValue": "post-market surveillance"
                },
                {
                    "conceptId": "C187706",
                    "definition": "When participants can still receive a study treatment after their participation has ended. (https://mrctcenter.org/glossaryterm/post-trial-access/)",
                    "preferredTerm": "Continued Access Study",
                    "submissionValue": "post-trial access"
                },
                {
                    "conceptId": "C142642",
                    "definition": "A study to test a treatment in the lab or in animals before testing it in people. (https://mrctcenter.org/glossaryterm/preclinical-study/)",
                    "preferredTerm": "Preclinical Study",
                    "submissionValue": "preclinical study"
                },
                {
                    "conceptId": "C17010",
                    "definition": "Number of known cases or events in a group. (https://mrctcenter.org/glossaryterm/prevalence/)",
                    "preferredTerm": "Prevalence",
                    "submissionValue": "prevalence"
                },
                {
                    "conceptId": "C94496",
                    "definition": "A study measure that is used to answer the main research question. (https://mrctcenter.org/glossaryterm/primary-endpoint/)",
                    "preferredTerm": "Primary Endpoint",
                    "submissionValue": "primary endpoint"
                },
                {
                    "conceptId": "C54154",
                    "definition": "The likelihood or chance that something might happen. (https://mrctcenter.org/glossaryterm/probability/)",
                    "preferredTerm": "Probability",
                    "submissionValue": "probability"
                },
                {
                    "conceptId": "C98769",
                    "definition": "The activities that participants will be asked to do during the research study. (https://mrctcenter.org/glossaryterm/procedures-for-participants/)",
                    "preferredTerm": "Physical Medical Procedure",
                    "submissionValue": "procedures (for participants)"
                },
                {
                    "conceptId": "C28234",
                    "definition": "The length of time without a person's illness getting worse. (https://mrctcenter.org/glossaryterm/progression-free-survival/)",
                    "preferredTerm": "Progression-free Survival",
                    "submissionValue": "progression-free survival"
                },
                {
                    "conceptId": "C142646",
                    "definition": "Research that uses new data collected from participants. (https://mrctcenter.org/glossaryterm/prospective-study/)",
                    "preferredTerm": "Prospective Study",
                    "submissionValue": "prospective study"
                },
                {
                    "conceptId": "C142451",
                    "definition": "A complete description of the research plan and procedures. (https://mrctcenter.org/glossaryterm/protocol/)",
                    "preferredTerm": "Clinical Trial Protocol",
                    "submissionValue": "protocol"
                },
                {
                    "conceptId": "C119264",
                    "definition": "A person who is legally allowed to make research decisions for someone else. (https://mrctcenter.org/glossaryterm/proxy/)",
                    "preferredTerm": "Proxy",
                    "submissionValue": "proxy"
                },
                {
                    "conceptId": "C142654",
                    "definition": "Replace personal details with a code so that data are protected. (https://mrctcenter.org/glossaryterm/pseudonymized/)",
                    "preferredTerm": "Pseudonymization",
                    "submissionValue": "pseudonymize"
                },
                {
                    "conceptId": "C17047",
                    "definition": "How someone feels and functions day to day. (https://mrctcenter.org/glossaryterm/quality-of-life-qol/)",
                    "preferredTerm": "Quality of Life",
                    "submissionValue": "Quality of Life (QOL)"
                },
                {
                    "conceptId": "C17048",
                    "definition": "A list of questions for study participants to answer as part of the study. (https://mrctcenter.org/glossaryterm/questionnaire/)",
                    "preferredTerm": "Questionnaire",
                    "submissionValue": "questionnaire"
                },
                {
                    "conceptId": "C25196",
                    "definition": "A way to use chance to place study participants into different study treatment groups. (https://mrctcenter.org/glossaryterm/randomization/)",
                    "preferredTerm": "Randomization",
                    "submissionValue": "randomization"
                },
                {
                    "conceptId": "C46079",
                    "definition": "Research that uses chance for participants to be assigned to the study treatment group or a comparison group. (https://mrctcenter.org/glossaryterm/randomized-controlled-trial/)",
                    "preferredTerm": "Randomized Controlled Clinical Trial",
                    "submissionValue": "randomized controlled trial"
                },
                {
                    "conceptId": "C165830",
                    "definition": "Information from many different sources used for health research purposes. (https://mrctcenter.org/glossaryterm/real-world-data-rwd/)",
                    "preferredTerm": "Real-world Data",
                    "submissionValue": "Real World Data (RWD)"
                },
                {
                    "conceptId": "C165831",
                    "definition": "Findings from analyzing real world data. (https://mrctcenter.org/glossaryterm/real-world-evidence-rwe/)",
                    "preferredTerm": "Real-world Evidence",
                    "submissionValue": "Real World Evidence (RWE)"
                },
                {
                    "conceptId": "C93453",
                    "definition": "An organized list of research information. (https://mrctcenter.org/glossaryterm/registry-study/)",
                    "preferredTerm": "Study Registry",
                    "submissionValue": "registry (study)"
                },
                {
                    "conceptId": "C93152",
                    "definition": "The chance of a harmful event happening in one study group compared to another. (https://mrctcenter.org/glossaryterm/relative-risk/)",
                    "preferredTerm": "Relative Risk",
                    "submissionValue": "relative risk"
                },
                {
                    "conceptId": "C203936",
                    "definition": "A collection of participant data and samples stored for future research. (https://mrctcenter.org/glossaryterm/repository-research/)",
                    "preferredTerm": "Research Repository",
                    "submissionValue": "repository (research)"
                },
                {
                    "conceptId": "C203930",
                    "definition": "Findings from the study. (https://mrctcenter.org/glossaryterm/results-study/)",
                    "preferredTerm": "Study Results",
                    "submissionValue": "results (study)"
                },
                {
                    "conceptId": "C53312",
                    "definition": "Research that uses already existing data. (https://mrctcenter.org/glossaryterm/retrospective-study/)",
                    "preferredTerm": "Retrospective Study",
                    "submissionValue": "retrospective study"
                },
                {
                    "conceptId": "C203928",
                    "definition": "A comparison of the possible bad and potential good things that could happen if a participant joins a research study. (https://mrctcenter.org/glossaryterm/risk-benefit-ratio/)",
                    "preferredTerm": "Risk-Benefit Ratio",
                    "submissionValue": "risk-benefit ratio"
                },
                {
                    "conceptId": "C142718",
                    "definition": "The possible harms of being in a research study. (https://mrctcenter.org/glossaryterm/risks-of-a-research-study/)",
                    "preferredTerm": "Subject Risk",
                    "submissionValue": "risks of a research study"
                },
                {
                    "conceptId": "C53190",
                    "definition": "The number of participants in a study or study group. (https://mrctcenter.org/glossaryterm/sample-size/)",
                    "preferredTerm": "Sample Size",
                    "submissionValue": "sample size"
                },
                {
                    "conceptId": "C142678",
                    "definition": "A chart that lists the study activities and when they will happen during a study. (https://mrctcenter.org/glossaryterm/schedule-of-assessments/)",
                    "preferredTerm": "Schedule Of Assessments",
                    "submissionValue": "schedule of assessments"
                },
                {
                    "conceptId": "C48262",
                    "definition": "Tests and questions to find out if a person can join a study. (https://mrctcenter.org/glossaryterm/screening/)",
                    "preferredTerm": "Trial Screening",
                    "submissionValue": "screening"
                },
                {
                    "conceptId": "C139173",
                    "definition": "A measure used to answer other important questions in the study that are not the main research question. (https://mrctcenter.org/glossaryterm/secondary-endpoint/)",
                    "preferredTerm": "Secondary Endpoint",
                    "submissionValue": "secondary endpoint"
                },
                {
                    "conceptId": "C41394",
                    "definition": "How well a medical test can accurately identify people who have a disease or trait. (https://mrctcenter.org/glossaryterm/sensitivity-medical-test/)",
                    "preferredTerm": "Diagnostic Sensitivity",
                    "submissionValue": "sensitivity (medical test)"
                },
                {
                    "conceptId": "C41335",
                    "definition": "A health issue that happens during a study, and can lead to hospital care, lasting medical problems, life-threatening conditions, or death. (https://mrctcenter.org/glossaryterm/serious-adverse-event-sae/)",
                    "preferredTerm": "Serious Adverse Event",
                    "submissionValue": "Serious Adverse Event (SAE)"
                },
                {
                    "conceptId": "C2861",
                    "definition": "A health change that is not the intended effect of the treatment and usually considered a problem. (https://mrctcenter.org/glossaryterm/side-effect/)",
                    "preferredTerm": "Side Effect",
                    "submissionValue": "side effect"
                },
                {
                    "conceptId": "C28233",
                    "definition": "A study that is set up so that the study treatment each participant receives is not known by the participants but is known by the researchers. (https://mrctcenter.org/glossaryterm/single-blind-study/)",
                    "preferredTerm": "Single Blind Study",
                    "submissionValue": "single-blind study"
                },
                {
                    "conceptId": "C41395",
                    "definition": "How well a medical test can accurately identify people who do not have a disease or trait. (https://mrctcenter.org/glossaryterm/specificity-medical-test/)",
                    "preferredTerm": "Diagnostic Specificity",
                    "submissionValue": "specificity (medical test)"
                },
                {
                    "conceptId": "C70793",
                    "definition": "The group that is in charge of, or pays for, a research study. (https://dev.mrctcenter.org/glossaryterm/sponsor-3/)",
                    "preferredTerm": "Clinical Study Sponsor",
                    "submissionValue": "sponsor"
                },
                {
                    "conceptId": "C94396",
                    "definition": "The usual treatment given to patients for an illness. (https://mrctcenter.org/glossaryterm/standard-of-care/)",
                    "preferredTerm": "Best Practice",
                    "submissionValue": "standard of care"
                },
                {
                    "conceptId": "C61040",
                    "definition": "Results that are very unlikely to have occurred by chance. (https://mrctcenter.org/glossaryterm/statistically-significant/)",
                    "preferredTerm": "Statistical Significance",
                    "submissionValue": "statistically significant"
                },
                {
                    "conceptId": "C15320",
                    "definition": "The way a study is set up to answer the study question. (https://mrctcenter.org/glossaryterm/study-design/)",
                    "preferredTerm": "Study Design",
                    "submissionValue": "study design"
                },
                {
                    "conceptId": "C209473",
                    "definition": "How likely it is that a study can be completed. (https://mrctcenter.org/glossaryterm/study-feasibility/)",
                    "preferredTerm": "Study Feasibility",
                    "submissionValue": "study feasibility"
                },
                {
                    "conceptId": "C25218",
                    "definition": "A treatment given to the participants in a study. (https://mrctcenter.org/glossaryterm/study-intervention/)",
                    "preferredTerm": "Clinical Intervention or Procedure",
                    "submissionValue": "study intervention"
                },
                {
                    "conceptId": "C203929",
                    "definition": "The steps of a research study from beginning to end. (https://mrctcenter.org/glossaryterm/study-life-cycle/)",
                    "preferredTerm": "Study Life Cycle",
                    "submissionValue": "study life cycle"
                },
                {
                    "conceptId": "C142710",
                    "definition": "A person who joins a research study. (https://mrctcenter.org/glossaryterm/study-participant/)",
                    "preferredTerm": "Study Participant",
                    "submissionValue": "study participant"
                },
                {
                    "conceptId": "C70833",
                    "definition": "All the participants in a study. (https://mrctcenter.org/glossaryterm/study-population/)",
                    "preferredTerm": "Study Population",
                    "submissionValue": "study population"
                },
                {
                    "conceptId": "C142737",
                    "definition": "A person who uses math to help design a study and interpret the data. (https://mrctcenter.org/glossaryterm/study-statistician/)",
                    "preferredTerm": "Trial Statistician",
                    "submissionValue": "study statistician"
                },
                {
                    "conceptId": "C198230",
                    "definition": "A study with a smaller group of participants already enrolled in the main study. (https://mrctcenter.org/glossaryterm/substudy/)",
                    "preferredTerm": "Substudy",
                    "submissionValue": "substudy"
                },
                {
                    "conceptId": "C142722",
                    "definition": "A study to test if a study treatment works better than another treatment for the same condition. (https://mrctcenter.org/glossaryterm/superiority-trial/)",
                    "preferredTerm": "Superiority Trial",
                    "submissionValue": "superiority trial"
                },
                {
                    "conceptId": "C203931",
                    "definition": "When two or more things combined have a greater effect than when their individual effects are added together. (https://mrctcenter.org/glossaryterm/synergistic-effect/)",
                    "preferredTerm": "Synergistic Effect",
                    "submissionValue": "synergistic effect"
                },
                {
                    "conceptId": "C203932",
                    "definition": "How much a participant or group of participants can accept a study treatment's unwanted effects so they can keep taking it. (https://mrctcenter.org/glossaryterm/tolerability/)",
                    "preferredTerm": "Study Intervention Tolerability",
                    "submissionValue": "tolerability"
                },
                {
                    "conceptId": "C209469",
                    "definition": "How much a study treatment changes a condition, symptom, or function. ((https://mrctcenter.org/glossaryterm/treatment-effect/)",
                    "preferredTerm": "Treatment Effect",
                    "submissionValue": "treatment effect"
                },
                {
                    "conceptId": "C209470",
                    "definition": "A research study that tests and compares two or more study treatments for one disease or condition. (https://mrctcenter.org/glossaryterm/umbrella-trial/)",
                    "preferredTerm": "Umbrella Trial",
                    "submissionValue": "umbrella trial"
                },
                {
                    "conceptId": "C203933",
                    "definition": "Choosing to participate in research without feeling pressured. (https://mrctcenter.org/glossaryterm/voluntary-participation/)",
                    "preferredTerm": "Voluntary Participation",
                    "submissionValue": "voluntary participation"
                },
                {
                    "conceptId": "C42872",
                    "definition": "A time before starting a study treatment when a person stops taking other medicines. (https://mrctcenter.org/glossaryterm/wash-out/)",
                    "preferredTerm": "Washout Period",
                    "submissionValue": "wash-out"
                },
                {
                    "conceptId": "C49634",
                    "definition": "To stop being a participant in a study. (https://mrctcenter.org/glossaryterm/withdraw/)",
                    "preferredTerm": "Withdrawal by Subject",
                    "submissionValue": "withdraw"
                },
                {
                    "conceptId": "C38101",
                    "definition": "A way of taking pictures of the inside of a person's body using X-ray radiation. (https://mrctcenter.org/glossaryterm/x-ray/)",
                    "preferredTerm": "X-Ray Imaging",
                    "submissionValue": "X-ray"
                }
            ]
        }
    ],
    "description": "CDISC Controlled Terminology for MRCT is the set of CDISC-developed or CDISC-adopted standard expressions (values) used with data items within CDISC-defined MRCT datasets.",
    "effectiveDate": "2024-09-27",
    "label": "MRCT Controlled Terminology Package 58 Effective 2024-09-27",
    "name": "MRCT CT 2024-09-27",
    "registrationStatus": "Final",
    "source": "MRCT Controlled Terminology developed by the CDISC Terminology Team in collaboration with the National Cancer Institute's Enterprise Vocabulary Services (EVS)",
    "version": "2024-09-27"
}